File: data-hydroxyapatite.txt
MATERIAL INFORMATION
	Material = Hydroxyapatite (powder)
SAXS INSTRUMENT
	Source = Cu K-alpha
	Wavelength = 1.5418 A
	Sample-to-detector distance = 106 mm
	Exposure time = 500 s

===============================================================
q (A^-1)	I(q)
===============================================================
0.00178309	-0.0796673
0.00423819	-0.0921456
0.00669328	-0.227412
0.00914837	-0.151686
0.0116035	0.0185004
0.0140586	0.0440716
0.0165136	-0.0127732
0.0189687	0.0262991
0.0214238	-0.0382579
0.0238789	0.0793282
0.026334	-0.333426
0.0287891	-0.341979
0.0312441	-6.13037
0.0336992	-6.24105
0.0361543	-2.5813
0.0386094	0.353709
0.0410644	0.101775
0.0435195	0.239367
0.0459745	0.157036
0.0484296	0.181716
0.0508846	0.178675
0.0533397	0.207342
0.0557947	0.200883
0.0582498	0.192432
0.0607048	0.188736
0.0631598	0.163993
0.0656148	0.135653
0.0680698	0.131572
0.0705248	0.122493
0.0729798	0.101164
0.0754348	0.102153
0.0778898	0.0965596
0.0803448	0.0925268
0.0827998	0.078219
0.0852547	0.0804092
0.0877097	0.0779425
0.0901646	0.0764845
0.0926196	0.0711158
0.0950745	0.0584701
0.0975294	0.0592855
0.0999843	0.055606
0.102439	0.0452228
0.104894	0.0419386
0.107349	0.0392375
0.109804	0.0453848
0.112259	0.0423436
0.114714	0.0440273
0.117169	0.0350881
0.119623	0.039703
0.122078	0.039379
0.124533	0.0375732
0.126988	0.0282474
0.129442	0.0292831
0.131897	0.023139
0.134352	0.031226
0.136807	0.0260118
0.139262	0.0227135
0.141716	0.0202489
0.144171	0.0272333
0.146626	0.0262634
0.14908		0.0251014
0.151535	0.0206755
0.15399		0.0266738
0.156444	0.0185803
0.158899	0.0179993
0.161354	0.0159851
0.163808	0.0175165
0.166263	0.0178232
0.168717	0.0174928
0.171172	0.0116964
0.173626	0.015498
0.176081	0.0144569
0.178536	0.0160974
0.18099		0.014594
0.183445	0.00625968
0.185899	0.00979128
0.188354	0.0127192
0.190808	0.0127624
0.193262	0.0124362
0.195717	0.013446
0.198171	0.0107622
0.200625	0.0111856
0.20308		0.00713664
0.205534	0.0142096
0.207988	0.0133412
0.210443	0.0125366
0.212897	0.00997272
0.215351	0.010813
0.217805	0.0097578
0.22026		0.0095634
0.222714	0.0090342
0.225168	0.00433944
0.227622	0.00854388
0.230076	0.00837432
0.23253		0.00831816
0.234985	0.00995976
0.237439	0.008316
0.239893	0.00471744
0.242347	0.00108648
0.244801	0.00703944
0.247255	0.00769716
0.249709	0.0061938
0.252162	0.00721224
0.254616	0.0113702
0.25707		0.00558468
0.259524	0.00677268
0.261978	0.00797472
0.264432	0.00602208
0.266886	0.00612576
0.269339	0.00925236
0.271793	0.00815184
0.274247	0.00761076
0.2767		0.007182
0.279154	0.0073386
0.281608	0.00564084
0.284061	0.00455868
0.286515	0.00455868
0.288969	0.0043362
0.291422	0.00729972
0.293876	0.0076464
0.296329	0.00763236
0.298783	0.00856332
0.301236	0.00498096
0.303689	0.00553716
0.306143	0.00624672
0.308596	0.003753
0.311049	0.00367956
0.313503	0.00689472
0.315956	0.0034668
0.318409	0.00451764
0.320862	0.00346788
0.323316	0.00142776
0.325769	0.0034452
0.328222	-0.00161784
0.330675	-0.000216
0.333128	0.00216756
0.335581	0.00226368
0.338034	0.0044442
0.340487	0.0033318
0.34294		0.00450576
0.345393	0.00489888
0.347846	0.00440424
0.350298	0.00377676
0.352751	0.00547776
0.355204	0.0053946
0.357657	0.00679536
0.36011		0.00408888
0.362562	0.0032508
0.365015	0.00347112
0.367468	0.00225396
0.36992		0.00160704
0.372373	0.00324216
0.374825	0.00311256
0.377278	0.0036936
0.37973		0.0034776
0.382182	0.00223344
0.384635	0.00271512
0.387087	0.00073332
0.38954		0.00393984
0.391992	-0.0018684
0.394444	0.00463212
0.396896	0.00534924
0.399348	0.006723
0.4018		0.00435456
0.404253	0.00377568
0.406705	0.00472392
0.409157	0.00382212
0.411609	0.0038016
0.414061	0.003591
0.416512	0.00467748
0.418964	0.00471744
0.421416	0.00472068
0.423868	0.00307584
0.42632		0.00151524
0.428771	0.00186732
0.431223	0.0028512
0.433675	0.00587304
0.436126	0.00411048
0.438578	0.001809
0.441029	0.00393228
0.443481	0.00273564
0.445932	0.00331452
0.448384	-0.00296352
0.450835	0.00236088
0.453286	0.00097092
0.455738	0.00356184
0.458189	0.00335448
0.46064		0.00591948
0.463091	0.00270432
0.465542	0.00265032
0.467993	0.00274968
0.470444	0.00489348
0.472895	0.00327888
0.475346	0.00384372
0.477797	0.00225288
0.480248	0.00209952
0.482699	0.00365796
0.48515		0.00371952
0.4876		0.00427896
0.490051	0.005022
0.492502	0.0028836
0.494952	0.0007776
0.497403	0.00365688
0.499853	0.00523044
0.502304	0.00216108
0.504754	0.00351756
0.507205	0.00242244
0.509655	0.0050328
0.512105	0.0025596
0.514555	0.00272808
0.517006	0.00368496
0.519456	0.00238896
0.521906	0.00191268
0.524356	0.00233388
0.526806	0.00297108
0.529256	0.00236844
0.531705	0.00357264
0.534155	0.00180684
0.536605	0.00330264
0.539055	0.00310824
0.541505	0.00383832
0.543954	0.00193428
0.546404	0.0019656
0.548853	0.00087912
0.551303	0.00251748
0.553752	0.00301644
0.556202	0.00305748
0.558651	0.00183384
0.5611		0.00224748
0.56355		0.0028404
0.565999	0.0041958
0.568448	0.00281664
0.570897	0.0115506
0.573346	0.00477792
0.575795	-0.003672
0.578244	0.00066528
0.580693	0.00150012
0.583142	0.00333504
0.585591	0.00416988
0.588039	0.00528336
0.590488	0.00096228
0.592936	0.00171504
0.595385	0.0009558
0.597834	0.0004752
0.600282	0.00356292
0.60273		0.00266652
0.605179	0.00310284
0.607627	0.00095904
0.610075	0.00119988
0.612524	0.00105732
0.614972	0.0024462
0.61742		0.00103896
0.619868	0.0009342
0.622316	0.00363528
0.624764	0.00405648
0.627211	0.00301104
0.629659	0.00117288
0.632107	0.0012258
0.634555	0.00251316
0.637002	0.00107352
0.63945		0.00334908
0.641897	0.00226908
0.644345	0.00330912
0.646792	0.0007506
0.649239	0.00312984
0.651687	0.00139644
0.654134	0.00136728
0.656581	0.0006912
0.659028	0.00222372
0.661475	0.00342036
0.663922	0.00034452
0.666369	0.00081648
0.668816	0.00134784
0.671263	0.00218268
0.673709	0.00306936
0.676156	0.00286416
0.678603	0.00111132
0.681049	0.003186
0.683496	0.00320004
0.685942	0.00277992
0.688388	0.0031968
0.690835	0.00437832
0.693281	0.00237384
0.695727	0.0009504
0.698173	0.00312984
0.700619	0.0016632
0.703065	0.00398412
0.705511	0.00500364
0.707957	0.0023328
0.710403	0.00507384
0.712848	0.00216972
0.715294	0.0031968
0.71774		0.00228636
0.720185	0.0021654
0.722631	0.00158976
0.725076	0.00215244
0.727521	0.00208764
0.729967	0.00312228
0.732412	-0.0038988
0.734857	0.00245052
0.737302	0.00194616
0.739747	0.00238356
0.742192	0.00435996
0.744637	0.00375084
0.747082	0.00256824
0.749526	0.00442584
0.751971	0.00422928
0.754416	0.00701784
0.75686		0.0100634
0.759305	0.0126058
0.761749	0.014108
0.764193	0.0143694
0.766637	0.0160142
0.769082	0.0175219
0.771526	0.016619
0.77397		0.0137657
0.776414	0.0115668
0.778858	0.0083592
0.781301	0.0070038
0.783745	0.00450144
0.786189	0.0058266
0.788633	0.00380592
0.791076	0.0031482
0.79352		-0.00297216
0.795963	0.00391932
0.798406	0.00180036
0.800849	0.00681696
0.803293	0.00296892
0.805736	0.00372924
0.808179	0.00352944
0.810622	0.0022788
0.813065	0.00353484
0.815507	0.00397548
0.81795		0.00301752
0.820393	0.00338364
0.822835	0.00364392
0.825278	0.00200016
0.82772		0.0022248
0.830163	0.00323028
0.832605	0.00351648
0.835047	0.00190188
0.837489	0.00141696
0.839931	0.00185112
0.842373	0.00334908
0.844815	0.00344628
0.847257	0.00243756
0.849699	0.00371412
0.852141	0.00402192
0.854582	0.00368388
0.857024	0.00259632
0.859465	0.00073116
0.861907	0.00219888
0.864348	0.0019764
0.866789	0.002403
0.86923		0.00246672
0.871671	0.00111996
0.874112	0.00231984
0.876553	0.00227556
0.878994	0.00172152
0.881435	0.00025272
0.883875	0.00348084
0.886316	0.00230256
0.888756	0.00309636
0.891197	0.00216756
0.893637	0.00135972
0.896077	0.00304776
0.898517	0.00121716
0.900958	0.00176364
0.903398	0.00293544
0.905837	0.00104112
0.908277	0.0025326
0.910717	-0.00624348
0.913157	0.00153576
0.915596	0.00278424
0.918036	0.00351972
0.920475	0.00148176
0.922915	0.00397656
0.925354	0.00143208
0.927793	0.00134784
0.930232	0.00227016
0.932671	0.00208116
0.93511		0.00242892
0.937549	0.00140292
0.939988	0.0004752
0.942426	0.00259524
0.944865	0.00170856
0.947303	0.002322
0.949742	0.0006102
0.95218		0.00154116
0.954618	0.00103248
0.957057	0.00130464
0.959495	0.00090936
0.961933	0.00196884
0.964371	0.00177984
0.966808	0.00133272
0.969246	0.00178092
0.971684	0.00182196
0.974121	0.00067284
0.976559	0.00263628
0.978996	0.00102708
0.981433	0.00012852
0.98387		0.00271512
0.986308	0.0025866
0.988745	0.00275724
0.991182	0.0019116
0.993618	0.002538
0.996055	0.00051948
0.998492	0.00245052
1.00093		0.00263952
1.00337		0.00101952
1.0058		-5.724e-05
1.00824		0.00168696
1.01067		0.00099252
1.01311		0.00404244
1.01555		0.00305208
1.01798		0.001728
1.02042		0.0032616
1.02285		0.00128088
1.02529		0.00073008
1.02772		0.00119772
1.03016		0.00085212
1.0326		0.00215352
1.03503		0.00093528
1.03747		0.00202824
1.0399		0.00040068
1.04234		0.00222588
1.04477		0.00084456
1.0472		0.00050868
1.04964		-0.00048924
1.05207		0.00105084
1.05451		0.00111996
1.05694		0.00120096
1.05938		0.00117396
1.06181		0.0011448
1.06425		-0.00519156
1.06668		0.00125928
1.06911		0.00088452
1.07155		0.00141696
1.07398		0.00113076
1.07642		0.00117072
1.07885		0.0016524
1.08128		0.00032508
1.08372		0.00281448
1.08615		0.00136404
1.08858		0.00106812
1.09102		0.00050976
1.09345		0.00113508
1.09588		0.00157464
1.09831		0.00064692
1.10075		0.00296136
1.10318		0.0016848
1.10561		0.00395712
1.10804		0.00157356
1.11048		0.00265356
1.11291		0.00115344
1.11534		0.00123984
1.11777		0.0019008
1.1202		0.00115884
1.12264		0.00131868
1.12507		0.00102276
1.1275		0.0023706
1.12993		0.00192564
1.13236		5.616e-05
1.13479		0.00034668
1.13722		0.00069768
1.13965		0.00104328
1.14209		0.00101196
1.14452		0.00171936
1.14695		4.644e-05
1.14938		-5.616e-05
1.15181		8.964e-05
1.15424		0.000243
1.15667		-0.00016416
1.1591		0.00027
1.16153		0.0022194
1.16396		0.00205416
1.16639		-0.00619704
1.16882		0.00108216
1.17125		0.00117936
1.17368		0.00084996
1.17611		0.00149472
1.17854		0.0030726
1.18097		0.00300024
1.1834		0.00262656
1.18582		0.00176256
1.18825		0.0014634
1.19068		0.00274968
1.19311		0.00452412
1.19554		0.00505656
1.19797		0.00379296
1.2004		0.00352404
1.20283		0.00266976
1.20525		0.00276912
1.20768		0.00226044
1.21011		-0.00040932
1.21254		-0.00046332
1.21496		-0.00081108
1.21739		0.00118584
1.21982		0.00035424
1.22225		0.00010692
1.22467		0.00305748
1.2271		0.00143424
1.22953		0.00042768
1.23195		0.00056268
1.23438		0.00132408
1.23681		9.072e-05
1.23924		-0.00025812
1.24166		-0.0002214
1.24409		0.00050004
1.24652	-0.00081324
1.24894	-0.00054432
1.25137	-0.0005562
1.25379	-0.0009234
1.25622	0.00047412
1.25864	-3.024e-05
1.26107	0.00130248
1.2635	0.0014634
1.26592	0.00118584
1.26835	-0.00071064
1.27077	-0.00047412
1.2732	-0.00064152
1.27562	-0.00058968
1.27805	-0.00675108
1.28047	-0.00013608
1.2829	0.001188
1.28532	0.00132732
1.28774	0.00013932
1.29017	0.00077868
1.29259	0.00085212
1.29502	0.00216324
1.29744	0.00049788
1.29986	0.00059292
1.30229	1.728e-05
1.30471	0.00107568
1.30713	0.00020088
1.30956	0.000999
1.31198	0.00047196
1.3144	0.00203256
1.31683	0.00035208
1.31925	-0.00021924
1.32167	0.00037152
1.32409	-0.00014256
1.32652	0.00141048
1.32894	0.00148608
1.33136	0.00050112
1.33378	0.00301644
1.33621	0.00159084
1.33863	0.0021978
1.34105	0.00147204
1.34347	0.00243216
1.34589	0.00162432
1.34831	8.424e-05
1.35073	0.00058212
1.35315	0.00052596
1.35558	-0.00096336
1.358	0.00110592
1.36042	0.00180036
1.36284	0.00113292
1.36526	8.64e-06
1.36768	-0.00041256
1.3701	-0.00079272
1.37252	-0.0006696
1.37494	-0.00020844
1.37736	0.00254988
1.37978	0.0085212
1.3822	-5.292e-05
1.38462	0.0005724
1.38704	0.00069336
1.38946	0.00095796
1.39188	0.0003402
1.3943	0.0004806
1.39671	7.56e-06
1.39913	0.00018684
1.40155	0.00118368
1.40397	0.00115992
1.40639	-1.296e-05
1.40881	0.0005076
1.41122	0.00055512
1.41364	0.0006966
1.41606	0.00122364
1.41848	0.00097092
1.4209	0.00156492
1.42331	4.104e-05
1.42573	-0.000486
1.42815	0.00239004
1.43056	0.0016902
1.43298	0.0025542
1.4354	-0.00139104
1.43781	-0.00083052
1.44023	-0.00079812
1.44265	0.00122256
1.44506	0.0020088
1.44748	0.00148608
1.4499	0.0008316
1.45231	0.00046008
1.45473	0.00102816
1.45714	0.0014472
1.45956	0.0016038
1.46197	-0.00010584
1.46439	0.0002106
1.4668	0.0011286
1.46922	0.000972
1.47163	0.00041364
1.47405	-0.00565812
1.47646	7.56e-06
1.47888	-0.00024732
1.48129	0.0005724
1.48371	-0.0014958
1.48612	0.00203904
1.48853	0.00048276
1.49095	-0.00035316
1.49336	-0.00067176
1.49578	0.00021276
1.49819	0.00132084
1.5006	0.0008532
1.50301	5.724e-05
1.50543	0.00045468
1.50784	0.00020844
1.51025	0.00095364
1.51266	0.000729
1.51508	0.00175068
1.51749	0.00159192
1.5199	0.0016632
1.52231	0.00220212
1.52472	0.00301644
1.52714	0.00353052
1.52955	0.00430812
1.53196	0.00505764
1.53437	0.00608472
1.53678	0.00617112
1.53919	0.00443556
1.5416	0.00609336
1.54401	0.00528768
1.54643	0.00205632
1.54884	0.00267948
1.55125	0.00240516
1.55366	0.00074088
1.55607	0.0003726
1.55848	0.00213732
1.56089	0.00041688
1.5633	0.00246348
1.5657	0.00069012
1.56811	0.0023112
1.57052	0.00055728
1.57293	0.00041472
1.57534	0.0020412
1.57775	0.00178308
1.58016	-0.00105516
1.58257	0.00070956
1.58498	-0.00053676
1.58738	0.00130356
1.58979	0.001836
1.5922	0.0018576
1.59461	0.00233064
1.59702	0.00114696
1.59942	0.00239544
1.60183	0.00362664
1.60424	0.00518724
1.60664	0.00452088
1.60905	0.00745524
1.61146	0.00674784
1.61386	0.00755352
1.61627	0.00776412
1.61868	0.00617004
1.62108	0.00692064
1.62349	0.00435024
1.62589	0.0030672
1.6283	0.00218052
1.63071	0.00167832
1.63311	0.00215028
1.63552	0.00232848
1.63792	0.00342252
1.64033	0.00205416
1.64273	0.0018468
1.64514	0.00202068
1.64754	0.00197748
1.64994	0.00132192
1.65235	0.00314496
1.65475	0.00241164
1.65716	0.00108324
1.65956	0.00140184
1.66196	0.0018252
1.66437	0.00100008
1.66677	0.00190188
1.66917	0.00111672
1.67158	0.00114048
1.67398	0.00176688
1.67638	0.00179496
1.67879	0.00100116
1.68119	0.00099792
1.68359	0.00056052
1.68599	0.00175176
1.68839	0.00158976
1.6908	0.0005184
1.6932	0.00130464
1.6956	0.00116748
1.698	0.0008208
1.7004	0.00170856
1.7028	0.00294084
1.7052	0.001107
1.7076	0.0013122
1.71	0.00140832
1.7124	0.00142776
1.7148	0.00298944
1.7172	0.00169884
1.7196	0.00167616
1.722	0.00195912
1.7244	0.0013446
1.7268	0.00153036
1.7292	0.00197964
1.7316	0.00219564
1.734	0.00131976
1.7364	0.00213408
1.7388	0.00165132
1.7412	0.00177444
1.74359	0.0017604
1.74599	0.00098712
1.74839	0.00089316
1.75079	0.00135756
1.75319	0.00144612
1.75558	0.00986148
1.75798	0.00158544
1.76038	0.00111132
1.76278	0.00234036
1.76517	0.002268
1.76757	0.00182196
1.76997	0.0025974
1.77236	0.00042984
1.77476	0.00183708
1.77716	0.00236952
1.77955	0.00371304
1.78195	0.00393444
1.78434	0.00549504
1.78674	0.00411588
1.78913	0.00526068
1.79153	0.00500688
1.79392	0.00445068
1.79632	0.00459
1.79871	0.00349272
1.80111	0.0036828
1.8035	0.00461592
1.8059	0.00543888
1.80829	0.00782352
1.81068	0.00966924
1.81308	0.00927072
1.81547	0.0174182
1.81786	0.0233615
1.82026	0.0289861
1.82265	0.0276685
1.82504	0.0310705
1.82743	0.0323438
1.82983	0.0327726
1.83222	0.0241423
1.83461	0.0169711
1.837	0.00815292
1.8394	0.0109706
1.84179	0.00531576
1.84418	0.00211788
1.84657	0.00242244
1.84896	0.00797148
1.85135	-0.00265788
1.85374	-0.0005994
1.85613	0.0016362
1.85852	0.00221292
1.86091	0.00105408
1.86331	-0.00964548
1.8645	-0.005589