File: data-parchment.txt
MATERIAL INFORMATION
	Material = King Arthur parchment
	Thickness = 0.006 mm
SAXS INSTRUMENT
	Source = Cu K-alpha
	Wavelength = 1.5418 A
	Sample-to-detector distance = 106 mm
	Exposure time = 500 s

===============================================================
q (A^-1)	I(q)
===============================================================
0.00203935	2.78927
0.00451643	-0.158278
0.00699351	-5.48916
0.00947059	1.09954
0.0119477	-3.47758
0.0144248	-0.835681
0.0169018	1.7398
0.0193789	-0.724273
0.021856	-0.789774
0.0243331	-1.03549
0.0268101	-1.41622
0.0292872	-0.00552403
0.0317643	-4.49621
0.0342413	-4.29608
0.0367184	0.141118
0.0391954	-0.0814218
0.0416725	0.426487
0.0441495	0.112662
0.0466266	0.0822195
0.0491036	0.584054
0.0515806	0.233165
0.0540577	0.639211
0.0565347	0.730349
0.0590117	1.2829
0.0614887	1.20615
0.0639657	1.5503
0.0664427	1.17274
0.0689197	1.17209
0.0713967	1.28883
0.0738737	1.13428
0.0763507	0.734403
0.0788277	0.655545
0.0813046	0.644556
0.0837816	0.619006
0.0862585	0.678236
0.0887355	1.10181
0.0912124	1.04823
0.0936893	0.911453
0.0961662	0.655237
0.0986431	0.80191
0.10112	1.16801
0.103597	0.746311
0.106074	0.654405
0.108551	0.0276161
0.111027	0.577243
0.113504	0.395574
0.115981	0.488548
0.118458	0.353061
0.120935	0.0701925
0.123412	0.373096
0.125888	0.29525
0.128365	0.341194
0.130842	0.400945
0.133319	0.410643
0.135796	0.653863
0.138272	0.690304
0.140749	0.191664
0.143226	0.132753
0.145702	0.274276
0.148179	0.423148
0.150656	0.649499
0.153132	0.287182
0.155609	0.265431
0.158086	0.188861
0.160562	0.172743
0.163039	0.306928
0.165515	0.4521
0.167992	0.249297
0.170469	-0.0230095
0.172945	0.347607
0.175422	0.202271
0.177898	-0.258919
0.180374	0.359188
0.182851	0.327008
0.185327	0.167886
0.187804	-0.00646418
0.19028	0.0719028
0.192757	-0.147084
0.195233	0.226222
0.197709	0.160707
0.200186	0.145778
0.202662	0.365427
0.205138	0.187764
0.207615	-0.0435455
0.210091	-0.222972
0.212567	0.0243923
0.215043	0.153506
0.21752	-0.0452929
0.219996	0.201941
0.222472	-0.0224893
0.224948	0.0952059
0.227424	0.0353527
0.2299	0.0170355
0.232376	0.19707
0.234852	0.00734942
0.237329	0.111034
0.239805	-0.127801
0.242281	-0.0898016
0.244757	0.0427068
0.247233	0.323924
0.249709	0.234996
0.252184	0.100322
0.25466	-0.133458
0.257136	-0.115053
0.259612	0.0623926
0.262088	-0.386077
0.264564	-0.076114
0.267039	-0.141545
0.269515	0.109301
0.271991	0.141058
0.274467	-0.176168
0.276942	0.0662944
0.279418	0.0203011
0.281893	-0.0538044
0.284369	-0.174966
0.286845	0.118571
0.28932	0.108933
0.291796	0.0104074
0.294271	0.0276977
0.296746	0.0656636
0.299222	0.065833
0.301697	0.0329318
0.304173	-0.0390147
0.306648	0.2313
0.309123	-0.234043
0.311599	-0.0513718
0.314074	0.0533636
0.316549	0.00591372
0.319024	0.112183
0.321499	-0.0247316
0.323975	-0.154036
0.32645	-0.114146
0.328925	-0.186452
0.3314	0.095979
0.333875	-0.0757941
0.33635	-0.040086
0.338825	-0.0357636
0.3413	0.167691
0.343775	0.119022
0.346249	-0.0296295
0.348724	0.0454965
0.351199	-0.0517824
0.353674	0.22247
0.356149	0.269472
0.358623	0.0377463
0.361098	-0.0882473
0.363573	-0.101325
0.366047	0.0210632
0.368522	0.138981
0.370996	0.00121521
0.373471	0.0768968
0.375945	-0.01146
0.37842	-0.0105691
0.380894	-0.0803857
0.383369	-0.175052
0.385843	0.115821
0.388317	0.032359
0.390791	-0.199832
0.393265	-0.0786192
0.39574	-0.00203493
0.398214	-0.147294
0.400688	-0.118503
0.403162	-0.122381
0.405636	-0.174804
0.40811	-0.12361
0.410584	-0.14813
0.413058	-0.271817
0.415532	-0.202064
0.418006	-0.0867972
0.42048	0.0794853
0.422953	0.0498578
0.425427	-0.170211
0.427901	-0.0821159
0.430374	-0.221484
0.432848	-0.176393
0.435321	0.205609
0.437795	0.111991
0.440269	-0.259839
0.442742	-0.058396
0.445215	0.0297351
0.447689	-0.165741
0.450162	-0.136923
0.452635	-0.249848
0.455108	-0.152189
0.457582	2.24539e-05
0.460055	-0.00702074
0.462528	0.0782263
0.465001	0.0692173
0.467474	0.0114478
0.469947	-0.0857676
0.47242	-0.146294
0.474893	-0.0795492
0.477366	-0.161966
0.479839	0.194733
0.482311	-0.047412
0.484784	-0.0442769
0.487257	-0.0908567
0.489729	-0.0988715
0.492202	-0.156346
0.494675	0.0503835
0.497147	0.0760792
0.499619	-0.0741455
0.502092	-0.170748
0.504564	-0.135313
0.507037	-0.0497005
0.509509	0.436792
0.511981	0.0718022
0.514453	0.369446
0.516925	-0.220876
0.519397	0.025062
0.521869	-0.116966
0.524341	-0.142157
0.526813	0.00851218
0.529285	-0.0694706
0.531757	-0.140405
0.534229	-0.151114
0.5367	-0.123613
0.539172	-0.154285
0.541644	-0.23682
0.544115	-0.0759156
0.546587	-0.0348799
0.549058	-0.105878
0.55153	-0.0671848
0.554001	-0.00910989
0.556473	-0.0248422
0.558944	0.0850004
0.561415	-0.0182431
0.563886	-0.0611775
0.566357	-0.0966401
0.568828	-0.166523
0.571299	0.0294025
0.57377	0.0419907
0.576241	-0.563958
0.578712	-0.21486
0.581183	-0.160667
0.583654	-0.252268
0.586124	-0.115407
0.588595	-0.211155
0.591066	-0.191439
0.593536	-0.654016
0.596007	-0.0718778
0.598477	-0.0494504
0.600947	0.108285
0.603418	-0.00915248
0.605888	-0.00679689
0.608358	-0.126038
0.610828	-0.0117319
0.613298	-0.069806
0.615768	-0.230792
0.618238	-0.151797
0.620708	-0.147723
0.623178	0.164001
0.625648	0.100192
0.628118	-0.094115
0.630587	0.154215
0.633057	-0.0570854
0.635527	0.0402931
0.637996	0.0516243
0.640466	-0.226165
0.642935	-0.0873836
0.645404	-0.0492056
0.647873	-0.100841
0.650343	-0.0760488
0.652812	-0.154301
0.655281	0.0254128
0.65775	-0.00876002
0.660219	-0.011605
0.662688	-0.0589217
0.665157	-0.0800295
0.667625	-0.182391
0.670094	-0.177483
0.672563	0.0991829
0.675032	-0.0143658
0.6775	-0.0731948
0.679969	-0.120566
0.682437	-0.00266848
0.684905	-0.238701
0.687374	-0.197247
0.689842	-0.0531899
0.69231	-0.121433
0.694778	0.00517774
0.697246	0.0736503
0.699714	0.168796
0.702182	0.143533
0.70465	0.00177986
0.707118	-0.105414
0.709585	-0.127856
0.712053	-0.0396745
0.714521	0.00795113
0.716988	-0.036902
0.719456	0.115386
0.721923	-0.0380132
0.72439	-0.0339754
0.726858	0.0109757
0.729325	-0.0218775
0.731792	-0.0525736
0.734259	-0.00390383
0.736726	0.0694339
0.739193	0.104498
0.74166	0.0523095
0.744126	-0.0105002
0.746593	-0.0380621
0.74906	-0.17488
0.751526	-0.10828
0.753993	0.201151
0.756459	0.19107
0.758925	0.0356608
0.761392	0.0495161
0.763858	-0.0454914
0.766324	-0.0850162
0.76879	0.0807896
0.771256	-0.0547606
0.773722	0.0836554
0.776188	0.0876814
0.778654	0.0431101
0.781119	0.0666551
0.783585	0.0565466
0.786051	0.198635
0.788516	-0.0690636
0.790982	0.00720706
0.793447	0.0262611
0.795912	0.0216071
0.798377	0.0954252
0.800843	0.0647799
0.803308	0.032688
0.805773	0.541984
0.808238	0.131389
0.810702	0.166115
0.813167	0.0278373
0.815632	0.0238267
0.818096	0.00664785
0.820561	-0.118851
0.823025	0.0161101
0.82549	-0.0467268
0.827954	0.0657886
0.830418	0.0953826
0.832882	0.062708
0.835347	0.0542663
0.837811	-0.013309
0.840274	-0.0759827
0.842738	0.0596726
0.845202	0.057027
0.847666	0.120371
0.850129	0.171916
0.852593	0.0214466
0.855056	0.00293909
0.85752	0.00589287
0.859983	0.0535539
0.862446	0.0298276
0.864909	0.0138297
0.867372	0.138399
0.869835	-0.00574369
0.872298	-0.0521875
0.874761	0.00439196
0.877224	-0.119627
0.879687	0.00142006
0.882149	0.047882
0.884612	0.156406
0.887074	0.128628
0.889536	0.142261
0.891999	0.132297
0.894461	0.10688
0.896923	0.099569
0.899385	0.0886023
0.901847	0.133994
0.904308	0.183263
0.90677	-0.0421633
0.909232	-0.0471011
0.911693	0.0778783
0.914155	0.085779
0.916616	0.143007
0.919078	0.00260736
0.921539	0.0776427
0.924	0.150645
0.926461	0.151243
0.928922	0.0840514
0.931383	0.102121
0.933844	0.171041
0.936305	0.133878
0.938765	0.12534
0.941226	-0.329056
0.943686	0.177229
0.946147	0.182713
0.948607	0.136212
0.951067	0.107859
0.953527	0.279865
0.955987	0.186664
0.958447	0.126621
0.960907	0.0864043
0.963367	0.158513
0.965827	0.128394
0.968286	0.125449
0.970746	0.183475
0.973205	0.131848
0.975664	0.130686
0.978124	-0.222034
0.980583	0.234971
0.983042	0.20731
0.985501	0.338094
0.98796	0.352086
0.990418	0.342425
0.992877	0.29567
0.995336	0.27745
0.997794	0.262778
1.00025	0.356251
1.00271	0.358223
1.00517	0.410768
1.00763	0.345482
1.01008	0.264539
1.01254	0.360259
1.015	0.354258
1.01746	0.364548
1.01992	0.321846
1.02237	0.368127
1.02483	0.356306
1.02729	0.322375
1.02975	0.406305
1.0322	0.370428
1.03466	0.337454
1.03712	0.415679
1.03957	0.433661
1.04203	0.35026
1.04449	-0.168012
1.04694	0.356451
1.0494	0.347225
1.05186	0.462196
1.05431	0.358771
1.05677	0.268118
1.05923	0.378891
1.06168	0.463361
1.06414	0.35325
1.06659	0.41674
1.06905	0.319878
1.0715	0.342459
1.07396	0.335214
1.07642	0.242876
1.07887	0.581446
1.08133	0.407658
1.08378	0.405049
1.08624	0.317912
1.08869	0.375883
1.09115	0.325647
1.0936	0.466572
1.09606	0.500799
1.09851	0.426564
1.10097	0.406263
1.10342	0.395608
1.10587	0.356904
1.10833	0.340445
1.11078	0.341545
1.11324	0.40179
1.11569	0.484125
1.11814	0.373326
1.1206	0.536178
1.12305	0.384026
1.1255	0.424118
1.12796	0.357878
1.13041	0.386168
1.13286	0.468068
1.13532	0.471242
1.13777	0.401824
1.14022	0.372378
1.14267	0.412479
1.14513	0.178974
1.14758	0.375646
1.15003	0.349953
1.15248	0.442557
1.15494	0.468409
1.15739	0.358084
1.15984	0.371901
1.16229	0.388493
1.16474	0.343684
1.1672	0.286715
1.16965	0.292967
1.1721	0.246106
1.17455	0.309586
1.177	0.259986
1.17945	0.333922
1.1819	0.381194
1.18435	0.338812
1.1868	0.354698
1.18926	0.341276
1.19171	0.214841
1.19416	0.231612
1.19661	0.223506
1.19906	0.30071
1.20151	0.321963
1.20396	0.386548
1.20641	0.279176
1.20886	0.189107
1.21131	0.148296
1.21375	0.295618
1.2162	0.386827
1.21865	0.301381
1.2211	0.177066
1.22355	0.160413
1.226	0.155967
1.22845	0.136303
1.2309	0.177483
1.23335	0.224256
1.2358	0.118995
1.23824	0.216768
1.24069	0.233029
1.24314	0.242485
1.24559	0.223102
1.24804	0.260222
1.25048	0.151063
1.25293	0.13373
1.25538	0.155384
1.25783	0.213395
1.26027	0.159329
1.26272	0.115204
1.26517	0.248109
1.26762	0.146031
1.27006	0.102532
1.27251	0.0769873
1.27496	0.179594
1.2774	-0.0567529
1.27985	0.0736565
1.2823	0.153149
1.28474	0.334584
1.28719	0.280838
1.28963	0.0473988
1.29208	0.0830245
1.29452	0.0490176
1.29697	0.00175259
1.29942	0.16536
1.30186	0.15845
1.30431	0.250669
1.30675	0.157021
1.3092	0.201502
1.31164	0.242866
1.31409	0.266396
1.31653	0.157906
1.31898	0.0727773
1.32142	0.106386
1.32386	0.269376
1.32631	0.10753
1.32875	0.227167
1.3312	0.168476
1.33364	0.105679
1.33608	0.0736049
1.33853	0.126204
1.34097	0.136143
1.34341	0.052778
1.34586	0.262164
1.3483	0.167528
1.35074	0.153494
1.35319	0.0970139
1.35563	0.137886
1.35807	0.266148
1.36051	0.327871
1.36295	0.211112
1.3654	0.179735
1.36784	0.13283
1.37028	0.109167
1.37272	0.182094
1.37516	0.121414
1.37761	0.128314
1.38005	0.15123
1.38249	0.159244
1.38493	0.192867
1.38737	0.145385
1.38981	0.320973
1.39225	0.266556
1.39469	0.159193
1.39713	0.284166
1.39957	0.273021
1.40201	0.256704
1.40445	0.193066
1.40689	0.281801
1.40933	0.263638
1.41177	0.313981
1.41421	0.341781
1.41665	0.238873
1.41909	0.402972
1.42153	0.393063
1.42397	0.216756
1.42641	0.390698
1.42885	0.409535
1.43129	0.509861
1.43372	0.428855
1.43616	0.317188
1.4386	0.341446
1.44104	0.394271
1.44348	0.315491
1.44592	0.396992
1.44835	0.435454
1.45079	0.450108
1.45323	0.486413
1.45567	0.349899
1.4581	0.355587
1.46054	0.32932
1.46298	0.423808
1.46541	0.515016
1.46785	0.472734
1.47029	0.319846
1.47272	0.470334
1.47516	0.343962
1.4776	0.422808
1.48003	0.441805
1.48247	0.339172
1.4849	0.34909
1.48734	0.519634
1.48977	0.509879
1.49221	0.551182
1.49464	0.390626
1.49708	0.493471
1.49951	0.526215
1.50195	0.518526
1.50438	0.541361
1.50682	0.551415
1.50925	0.564677
1.51169	0.458555
1.51412	0.509314
1.51655	0.577869
1.51899	0.557772
1.52142	0.51559
1.52386	0.498798
1.52629	0.500508
1.52872	0.572106
1.53116	0.623288
1.53359	0.688324
1.53602	0.638649
1.53845	0.64883
1.54089	0.628586
1.54332	0.578572
1.54575	0.817266
1.54818	0.90051
1.55061	1.00775
1.55305	0.770964
1.55548	0.913162
1.55791	0.981933
1.56034	0.862613
1.56277	0.790348
1.5652	0.915647
1.56763	1.01349
1.57006	0.992382
1.5725	0.872381
1.57492	0.968161
1.57736	0.968264
1.57979	1.03985
1.58222	0.882392
1.58465	0.915193
1.58708	0.929857
1.5895	0.963637
1.59193	0.865111
1.59436	0.975747
1.59679	0.98861
1.59922	0.987828
1.60165	0.868376
1.60408	0.928803
1.60651	0.917531
1.60894	1.01629
1.61136	0.813744
1.61379	0.842227
1.61622	0.789492
1.61865	0.755183
1.62108	0.720267
1.6235	0.773503
1.62593	0.749515
1.62836	0.702167
1.63079	0.693494
1.63321	0.564099
1.63564	0.521992
1.63807	0.401467
1.64049	0.478541
1.64292	0.459529
1.64535	0.433477
1.64777	0.419213
1.6502	0.455805
1.65262	0.283255
1.65505	0.330396
1.65747	0.279089
1.6599	0.276572
1.66232	0.274956
1.66475	0.211904
1.66717	0.255092
1.6696	0.250522
1.67202	0.24276
1.67445	0.252851
1.67687	0.15145
1.6793	0.15318
1.68172	0.104492
1.68414	0.137445
1.68657	0.193435
1.68899	0.120581
1.69141	0.10359
1.69384	0.119218
1.69626	0.201572
1.69868	0.183069
1.7011	0.0959934
1.70353	0.11171
1.70595	0.0971926
1.70837	0.0895485
1.71079	0.180228
1.71321	0.187948
1.71564	0.0426968
1.71806	0.0570515
1.72048	0.102387
1.7229	0.0679602
1.72532	-0.0773295
1.72774	0.0746255
1.73016	0.0519234
1.73258	0.0111605
1.735	0.0158536
1.73742	0.0932082
1.73984	0.0934349
1.74226	0.0483986
1.74468	0.0457983
1.7471	0.0590626
1.74952	-0.0031733
1.75194	0.0122717
1.75436	0.0374201
1.75678	0.00325358
1.7592	0.0367077
1.76162	0.116107
1.76404	0.0453542
1.76645	0.0366442
1.76887	0.060404
1.77129	-0.00797512
1.77371	0.00126959
1.77613	-0.0523198
1.77854	-0.0897817
1.78096	0.00248681
1.78338	-0.0591727
1.78579	-0.0525192
1.78821	-0.0492636
1.79063	-0.0851911
1.79305	-0.0967071
1.79546	-0.156143
1.79788	-0.092663
1.80029	-0.0721987
1.80271	0.00964694
1.80512	0.392689
1.80754	-0.141118
1.80996	-0.0875195
1.81237	-0.0420881
1.81479	-0.181443
1.8172	-0.0788403
1.81962	-0.142489
1.82203	-0.104934
1.82444	-0.0160996
1.82686	0.0625693
1.82927	-0.0693202
1.83169	-0.108718
1.8341	0.00677474
1.83651	0.059872
1.83893	0.105473
1.84134	0.139589
1.84375	-0.223172
1.84616	0.0317237
1.84858	-0.014421
1.85099	0.395126
1.8534	0.0461726
1.85581	-0.171036
1.85823	0.145078
1.86064	-0.179964
1.86305	-0.0578449
1.86546	-0.146525
1.86787	-0.283801
1.87028	-0.0710848
1.87269	-0.127697
1.87511	-0.324103
1.87752	-0.523985