File: data-veroclear.txt
MATERIAL INFORMATION
	Material = VeroClear
	Thickness = 1 mm
SAXS INSTRUMENT
	Source = Cu K-alpha
	Wavelength = 1.5418 A
	Sample-to-detector distance = 106 mm
	Exposure time = 60 s

===============================================================
q (A^-1)	I(q)
===============================================================
-0.015857	0.153761
-0.0108425	-0.00043892
-0.0058281	0.0367362
-0.00081367	-0.0184526
0.00420075	-0.0200933
0.00921516	0.186923
0.0142296	0.277447
0.0192439	-0.0599686
0.0242583	-0.467105
0.0292727	-0.595713
0.034287	-0.499383
0.0393013	-0.219075
0.0443156	0.0266428
0.0493298	0.0177596
0.0543441	-0.0622308
0.0593583	-0.032921
0.0643725	0.0194665
0.0693866	0.0219601
0.0744007	0.00435895
0.0794148	0.0115935
0.0844288	0.0265258
0.0894428	0.033416
0.0944567	0.0318523
0.0994706	0.0432338
0.104485	0.0345943
0.109498	0.0458988
0.114512	0.0376819
0.119526	0.0365893
0.124539	0.0402841
0.129553	0.0405325
0.134566	0.0257435
0.13958	0.0313587
0.144593	0.0376445
0.149607	0.0358088
0.15462	0.0347064
0.159633	0.0373843
0.164647	0.0406285
0.16966	0.0378444
0.174673	0.038195
0.179686	0.0441042
0.184698	0.0388464
0.189711	0.0396657
0.194724	0.0402504
0.199736	0.0451005
0.204749	0.045026
0.209761	0.0461551
0.214774	0.0457015
0.219786	0.0503883
0.224798	0.0503967
0.22981	0.0483549
0.234822	0.0452519
0.239834	0.0553175
0.244846	0.0572535
0.249858	0.0507834
0.254869	0.0521396
0.259881	0.053832
0.264892	0.0486547
0.269903	0.0525306
0.274914	0.0567622
0.279925	0.0588223
0.284936	0.0552198
0.289947	0.0568089
0.294958	0.0682597
0.299968	0.0644789
0.304979	0.0639154
0.309989	0.0612452
0.314999	0.0610766
0.32001	0.0615631
0.325019	0.0694175
0.330029	0.06988
0.335039	0.0692897
0.340048	0.060017
0.345058	0.064363
0.350067	0.0714961
0.355076	0.0793465
0.360085	0.0784399
0.365094	0.0771735
0.370103	0.0737178
0.375111	0.0793836
0.38012	0.0803982
0.385128	0.0838904
0.390136	0.0736463
0.395144	0.0680324
0.400152	0.0737549
0.405159	0.0727785
0.410167	0.0745148
0.415174	0.0785247
0.420181	0.076311
0.425188	0.0742025
0.430195	0.0745513
0.435201	0.0714532
0.440208	0.0736505
0.445214	0.0707778
0.45022	0.0734691
0.455226	0.0736609
0.460232	0.0745281
0.465237	0.0725917
0.470243	0.0751816
0.475248	0.0764105
0.480253	0.076377
0.485258	0.0757659
0.490262	0.0713391
0.495266	0.0729084
0.500271	0.0737768
0.505275	0.0749229
0.510278	0.0668265
0.515282	0.0633954
0.520285	0.0613775
0.525289	0.0630644
0.530292	0.0624195
0.535294	0.0672884
0.540297	0.0654696
0.545299	0.0701485
0.550302	0.0686159
0.555303	0.067545
0.560305	0.06371
0.565307	0.0638877
0.570308	0.0559869
0.575309	0.0581692
0.58031	0.055901
0.58531	0.0591238
0.590311	0.0675892
0.595311	0.0622972
0.60031	0.0585908
0.60531	0.0594544
0.61031	0.0569236
0.615309	0.059256
0.620308	0.0649786
0.625306	0.0583383
0.630305	0.0616895
0.635303	0.0633522
0.640301	0.0596857
0.645299	0.0581787
0.650296	0.0571162
0.655293	0.0536616
0.66029	0.0613369
0.665287	0.0569815
0.670283	0.0574
0.675279	0.0596303
0.680275	0.0605842
0.685271	0.066322
0.690266	0.0602929
0.695261	0.0596512
0.700256	0.061564
0.705251	0.0632515
0.710245	0.0610496
0.715239	0.0650071
0.720233	0.068092
0.725226	0.0609966
0.730219	0.0617868
0.735212	0.0644959
0.740204	0.0625185
0.745197	0.066377
0.750189	0.0657735
0.75518	0.0678619
0.760172	0.0640549
0.765163	0.071291
0.770154	0.071576
0.775144	0.0702802
0.780134	0.0717309
0.785124	0.0718429
0.790114	0.0716613
0.795103	0.0708522
0.800092	0.0709764
0.805081	0.0802033
0.810069	0.077261
0.815057	0.0811314
0.820045	0.0843808
0.825032	0.0852746
0.830019	0.0877098
0.835006	0.0872521
0.839992	0.0896999
0.844979	0.095233
0.849964	0.0979145
0.85495	0.0989199
0.859935	0.0903123
0.86492	0.0871323
0.869904	0.0890689
0.874888	0.0981798
0.879872	0.104487
0.884855	0.108257
0.889838	0.109264
0.894821	0.121807
0.899803	0.125325
0.904785	0.124993
0.909767	0.120054
0.914748	0.119834
0.919729	0.1233
0.92471	0.132409
0.92969	0.134688
0.93467	0.136528
0.93965	0.13754
0.944629	0.140357
0.949608	0.142536
0.954586	0.144036
0.959564	0.147464
0.964542	0.149169
0.969519	0.154056
0.974496	0.161951
0.979473	0.167692
0.984449	0.173956
0.989425	0.177087
0.9944	0.183298
0.999375	0.194133
1.00435	0.199887
1.00932	0.193467
1.0143	0.192752
1.01927	0.199379
1.02424	0.203218
1.02922	0.20405
1.03419	0.20704
1.03916	0.216527
1.04413	0.225374
1.0491	0.234066
1.05407	0.227047
1.05905	0.232538
1.06401	0.234153
1.06898	0.238371
1.07395	0.246216
1.07892	0.252047
1.08389	0.255147
1.08886	0.274205
1.09383	0.274378
1.09879	0.272891
1.10376	0.28177
1.10872	0.283436
1.11369	0.290473
1.11866	0.297442
1.12362	0.297104
1.12858	0.294869
1.13355	0.308177
1.13851	0.313635
1.14348	0.318026
1.14844	0.320484
1.1534	0.317935
1.15836	0.326534
1.16332	0.326492
1.16828	0.325275
1.17324	0.331272
1.1782	0.332272
1.18316	0.333223
1.18812	0.346297
1.19308	0.340177
1.19804	0.34167
1.203	0.346236
1.20795	0.347982
1.21291	0.353782
1.21787	0.346056
1.22282	0.347912
1.22778	0.343261
1.23273	0.345806
1.23769	0.33392
1.24264	0.329181
1.24759	0.328975
1.25255	0.342867
1.2575	0.349001
1.26245	0.351236
1.2674	0.350949
1.27235	0.353416
1.2773	0.353207
1.28225	0.351837
1.2872	0.349212
1.29215	0.343634
1.2971	0.3388
1.30205	0.328906
1.307	0.327404
1.31194	0.325896
1.31689	0.32384
1.32184	0.319553
1.32678	0.322371
1.33173	0.31516
1.33667	0.311462
1.34162	0.30806
1.34656	0.30149
1.3515	0.301592
1.35644	0.296456
1.36138	0.291422
1.36633	0.289653
1.37127	0.28525
1.37621	0.285763
1.38115	0.279507
1.38609	0.276067
1.39103	0.277946
1.39596	0.279217
1.4009	0.274951
1.40584	0.274817
1.41077	0.267921
1.41571	0.254808
1.42065	0.252139
1.42558	0.248773
1.43052	0.25098
1.43545	0.243545
1.44038	0.232246
1.44532	0.23372
1.45025	0.230598
1.45518	0.226582
1.46011	0.230199
1.46504	0.229155
1.46997	0.210789
1.4749	0.213221
1.47983	0.209322
1.48476	0.209627
1.48968	0.208772
1.49461	0.200243
1.49954	0.205828
1.50446	0.200178
1.50939	0.195992
1.51431	0.196812
1.51924	0.185873
1.52416	0.182457
1.52908	0.183234
1.53401	0.180432
1.53893	0.179183
1.54385	0.176965
1.54877	0.169395
1.55369	0.167389
1.55861	0.16905
1.56353	0.167544
1.56845	0.166477
1.57336	0.160257
1.57828	0.155889
1.5832	0.153759
1.58811	0.15099
1.59303	0.151417
1.59794	0.145616
1.60286	0.146683
1.60777	0.141653
1.61268	0.137899
1.6176	0.137356
1.62251	0.133199
1.62742	0.135092
1.63233	0.129642
1.63724	0.12833
1.64215	0.130622
1.64705	0.124906
1.65196	0.122216
1.65687	0.118895
1.66178	0.118054
1.66668	0.119631
1.67159	0.116026
1.67649	0.118767
1.6814	0.116741
1.6863	0.111206
1.6912	0.110093
1.6961	0.106024
1.701	0.104324
1.70591	0.0983795
1.7108	0.0973519
1.71571	0.0938265
1.7206	0.0921618
1.7255	0.0901907
1.7304	0.0836419
1.7353	0.0873818
1.74019	0.0863979
1.74509	0.0849928
1.74998	0.0868805
1.75488	0.0839181
1.75977	0.0872902
1.76466	0.0833295
1.76955	0.080707
1.77445	0.0815514
1.77934	0.0798468
1.78423	0.0807667
1.78912	0.0766315
1.794	0.0737634
1.79889	0.0710658
1.80378	0.0671226
1.80867	0.0629166
1.81355	0.059339
1.81844	0.0599547
1.82332	0.0517971
1.8282	0.0436494
1.83309	0.0460053