File: data-flx9095.txt
MATERIAL INFORMATION
	Material = Flx9095
	Thickness = 1 mm
SAXS INSTRUMENT
	Source = Cu K-alpha
	Wavelength = 1.5418 A
	Sample-to-detector distance = 106 mm
	Exposure time = 60 s

===============================================================
q (A^-1)	I(q)
===============================================================
0.00171434	-0.00192394
0.00417038	-0.0593959
0.00662642	-0.00605892
0.00908246	0.0541349
0.0115385	0.121538
0.0139945	0.040428
0.0164506	0.0446539
0.0189066	0.0388208
0.0213626	0.0350993
0.0238187	0.0033327
0.0262747	0.026168
0.0287307	0.0116221
0.0311868	0.0285171
0.0336428	0.000984705
0.0360988	-0.00843962
0.0385548	-0.0106904
0.0410108	0.00813071
0.0434668	0.00479316
0.0459228	-0.0077703
0.0483788	-0.00332926
0.0508348	-0.0120466
0.0532908	0.00235437
0.0557468	0.00196116
0.0582028	0.0105424
0.0606587	0.00684118
0.0631147	0.0264157
0.0655707	0.0273156
0.0680266	0.0443358
0.0704826	0.0543407
0.0729385	0.0608468
0.0753945	0.0852369
0.0778504	0.0954162
0.0803063	0.103067
0.0827623	0.108211
0.0852182	0.100354
0.0876741	0.105176
0.09013	0.106652
0.0925858	0.114386
0.0950417	0.102735
0.0974976	0.109269
0.0999535	0.0928025
0.102409	0.0887846
0.104865	0.0937651
0.107321	0.110088
0.109777	0.105858
0.112233	0.109788
0.114688	0.111184
0.117144	0.10293
0.1196	0.100901
0.122056	0.0911963
0.124512	0.100298
0.126967	0.101517
0.129423	0.0979651
0.131879	0.0869402
0.134334	0.0907505
0.13679	0.085781
0.139246	0.0946951
0.141701	0.0917299
0.144157	0.0942819
0.146613	0.0931563
0.149068	0.0942873
0.151524	0.0894741
0.15398	0.0920221
0.156435	0.0960582
0.158891	0.103898
0.161346	0.0952015
0.163802	0.089538
0.166258	0.0906985
0.168713	0.0956431
0.171169	0.089956
0.173624	0.0758042
0.17608	0.0862384
0.178535	0.0891932
0.18099	0.0949823
0.183446	0.0962148
0.185901	0.0855337
0.188357	0.0904036
0.190812	0.0944735
0.193267	0.0905063
0.195723	0.0939563
0.198178	0.0838762
0.200633	0.092162
0.203089	0.101778
0.205544	0.102413
0.207999	0.096073
0.210454	0.102546
0.21291	0.0988104
0.215365	0.0992104
0.21782	0.0992054
0.220275	0.0993684
0.22273	0.0909485
0.225185	0.0989589
0.227641	0.0985178
0.230096	0.0973151
0.232551	0.100329
0.235006	0.105828
0.237461	0.0954692
0.239916	0.100231
0.242371	0.11046
0.244826	0.109062
0.24728	0.104428
0.249735	0.113962
0.25219	0.109578
0.254645	0.108527
0.2571	0.107053
0.259555	0.108426
0.26201	0.119796
0.264464	0.109914
0.266919	0.106848
0.269374	0.117285
0.271828	0.116072
0.274283	0.11761
0.276738	0.121519
0.279192	0.11743
0.281647	0.125761
0.284101	0.1254
0.286556	0.11974
0.289011	0.119869
0.291465	0.117214
0.293919	0.121506
0.296374	0.131391
0.298828	0.126807
0.301283	0.127296
0.303737	0.125684
0.306191	0.131471
0.308646	0.128415
0.3111	0.131831
0.313554	0.130903
0.316008	0.130242
0.318462	0.134554
0.320917	0.137995
0.323371	0.135903
0.325825	0.134027
0.328279	0.133907
0.330733	0.130186
0.333187	0.137864
0.335641	0.139125
0.338095	0.142907
0.340549	0.140445
0.343003	0.145567
0.345457	0.131996
0.34791	0.137232
0.350364	0.14834
0.352818	0.138716
0.355272	0.137097
0.357725	0.140219
0.360179	0.137388
0.362633	0.142877
0.365086	0.149161
0.36754	0.14861
0.369993	0.145389
0.372447	0.143911
0.3749	0.145136
0.377354	0.14579
0.379807	0.143007
0.38226	0.153701
0.384714	0.147126
0.387167	0.143617
0.38962	0.138161
0.392073	0.140779
0.394527	0.147055
0.39698	0.146205
0.399433	0.148789
0.401886	0.144738
0.404339	0.148162
0.406792	0.143224
0.409245	0.133182
0.411698	0.14466
0.414151	0.145842
0.416604	0.140757
0.419056	0.143264
0.421509	0.143933
0.423962	0.142554
0.426415	0.137086
0.428867	0.140243
0.43132	0.138482
0.433773	0.132268
0.436225	0.132335
0.438678	0.13583
0.44113	0.139506
0.443582	0.14035
0.446035	0.141616
0.448487	0.140243
0.450939	0.143277
0.453392	0.132795
0.455844	0.135925
0.458296	0.141606
0.460748	0.135892
0.4632	0.136202
0.465652	0.135306
0.468104	0.131198
0.470556	0.136136
0.473008	0.122394
0.47546	0.126447
0.477912	0.128474
0.480364	0.126566
0.482815	0.129352
0.485267	0.123439
0.487719	0.125999
0.49017	0.121369
0.492622	0.11893
0.495074	0.129391
0.497525	0.125524
0.499976	0.120075
0.502428	0.116077
0.504879	0.114171
0.507331	0.11503
0.509782	0.12177
0.512233	0.122601
0.514684	0.11734
0.517135	0.121301
0.519586	0.114823
0.522037	0.12122
0.524488	0.117506
0.526939	0.122553
0.52939	0.121826
0.531841	0.116874
0.534292	0.121413
0.536743	0.116351
0.539193	0.110281
0.541644	0.113888
0.544094	0.11207
0.546545	0.106505
0.548995	0.109892
0.551446	0.118909
0.553896	0.114755
0.556347	0.11321
0.558797	0.108946
0.561247	0.105097
0.563697	0.113347
0.566147	0.113273
0.568597	0.106726
0.571047	0.111002
0.573497	0.112627
0.575947	0.112556
0.578397	0.106283
0.580847	0.104887
0.583297	0.101402
0.585747	0.103053
0.588196	0.104301
0.590646	0.106535
0.593095	0.108505
0.595545	0.106092
0.597994	0.110136
0.600444	0.112007
0.602893	0.104177
0.605342	0.116183
0.607792	0.114315
0.610241	0.100846
0.61269	0.0993579
0.615139	0.107703
0.617588	0.104866
0.620037	0.106932
0.622486	0.106472
0.624935	0.099929
0.627383	0.096424
0.629832	0.0915553
0.632281	0.105099
0.634729	0.102335
0.637178	0.0961222
0.639626	0.106329
0.642075	0.105752
0.644523	0.106239
0.646972	0.102251
0.64942	0.103777
0.651868	0.10296
0.654316	0.105574
0.656764	0.101171
0.659212	0.102059
0.66166	0.109781
0.664108	0.0997366
0.666556	0.0943384
0.669004	0.101711
0.671452	0.101621
0.673899	0.105401
0.676347	0.104333
0.678794	0.108829
0.681242	0.104661
0.683689	0.100803
0.686137	0.106083
0.688584	0.10062
0.691031	0.107165
0.693478	0.103842
0.695925	0.101457
0.698372	0.0932183
0.700819	0.107714
0.703266	0.108321
0.705713	0.102372
0.70816	0.102453
0.710607	0.102656
0.713053	0.110467
0.7155	0.101359
0.717947	0.101525
0.720393	0.106097
0.722839	0.104005
0.725286	0.108089
0.727732	0.108577
0.730178	0.112507
0.732624	0.0997501
0.73507	0.104796
0.737516	0.107146
0.739962	0.104505
0.742408	0.10531
0.744854	0.107086
0.7473	0.104039
0.749745	0.105369
0.752191	0.106339
0.754636	0.115262
0.757082	0.111688
0.759527	0.114557
0.761973	0.113835
0.764418	0.113466
0.766863	0.11075
0.769308	0.108782
0.771753	0.115681
0.774198	0.112824
0.776643	0.104805
0.779088	0.110753
0.781533	0.114376
0.783977	0.116977
0.786422	0.12279
0.788866	0.11384
0.791311	0.110093
0.793755	0.109312
0.7962	0.11277
0.798644	0.120507
0.801088	0.112665
0.803532	0.117249
0.805976	0.118646
0.80842	0.121894
0.810864	0.118336
0.813308	0.1172
0.815752	0.120314
0.818195	0.123846
0.820639	0.124123
0.823082	0.115402
0.825526	0.118338
0.827969	0.123424
0.830413	0.126614
0.832856	0.128218
0.835299	0.12399
0.837742	0.12827
0.840185	0.124038
0.842628	0.125303
0.845071	0.127745
0.847514	0.124199
0.849956	0.123476
0.852399	0.122655
0.854841	0.128198
0.857284	0.128353
0.859726	0.124251
0.862168	0.129193
0.864611	0.124181
0.867053	0.129075
0.869495	0.128678
0.871937	0.125016
0.874379	0.131068
0.876821	0.134163
0.879262	0.13235
0.881704	0.137772
0.884146	0.130219
0.886587	0.136629
0.889029	0.135754
0.89147	0.13639
0.893911	0.137883
0.896352	0.142126
0.898794	0.141884
0.901234	0.14163
0.903675	0.136341
0.906116	0.138928
0.908557	0.144836
0.910998	0.14392
0.913438	0.140564
0.915879	0.144373
0.918319	0.144237
0.92076	0.14382
0.9232	0.152131
0.92564	0.148911
0.92808	0.144911
0.93052	0.144269
0.93296	0.146533
0.9354	0.150277
0.93784	0.148578
0.94028	0.154245
0.942719	0.156794
0.945159	0.153555
0.947598	0.152059
0.950037	0.158042
0.952477	0.156983
0.954916	0.156511
0.957355	0.160964
0.959794	0.1633
0.962233	0.16512
0.964672	0.167937
0.96711	0.161225
0.969549	0.171368
0.971988	0.176845
0.974426	0.168759
0.976864	0.170567
0.979303	0.172017
0.981741	0.175112
0.984179	0.175044
0.986617	0.173559
0.989055	0.176768
0.991493	0.176478
0.993931	0.176322
0.996368	0.174941
0.998806	0.177994
1.00124	0.177618
1.00368	0.187282
1.00612	0.182281
1.00855	0.185061
1.01099	0.183116
1.01343	0.188421
1.01587	0.189173
1.0183	0.193387
1.02074	0.193808
1.02318	0.19526
1.02561	0.195903
1.02805	0.195911
1.03049	0.193115
1.03292	0.195974
1.03536	0.198118
1.0378	0.20466
1.04023	0.203897
1.04267	0.207352
1.0451	0.204269
1.04754	0.197663
1.04997	0.199169
1.05241	0.203427
1.05485	0.203658
1.05728	0.20765
1.05972	0.208514
1.06215	0.208205
1.06458	0.211248
1.06702	0.208993
1.06946	0.212728
1.07189	0.214027
1.07433	0.216946
1.07676	0.21973
1.07919	0.217114
1.08163	0.22364
1.08406	0.222184
1.0865	0.224418
1.08893	0.223541
1.09136	0.231353
1.0938	0.229121
1.09623	0.230729
1.09867	0.228597
1.1011	0.23438
1.10353	0.237092
1.10597	0.234682
1.1084	0.237297
1.11083	0.242088
1.11327	0.237002
1.1157	0.240906
1.11813	0.243368
1.12056	0.24361
1.123	0.244003
1.12543	0.250423
1.12786	0.243966
1.13029	0.243234
1.13273	0.247598
1.13516	0.250968
1.13759	0.255194
1.14002	0.252658
1.14246	0.254863
1.14489	0.254303
1.14732	0.256482
1.14975	0.261841
1.15218	0.261185
1.15461	0.261755
1.15704	0.260699
1.15948	0.261972
1.16191	0.263898
1.16434	0.263756
1.16677	0.265031
1.1692	0.267879
1.17163	0.267959
1.17406	0.26711
1.17649	0.272393
1.17892	0.264475
1.18135	0.269889
1.18378	0.276126
1.18621	0.274763
1.18864	0.276597
1.19107	0.277255
1.1935	0.278716
1.19593	0.280131
1.19836	0.274221
1.20079	0.278935
1.20322	0.278206
1.20565	0.276406
1.20808	0.279807
1.2105	0.27829
1.21293	0.27906
1.21536	0.281466
1.21779	0.277518
1.22022	0.278572
1.22265	0.287079
1.22507	0.286329
1.2275	0.286041
1.22993	0.283317
1.23236	0.28217
1.23479	0.287902
1.23721	0.28767
1.23964	0.291229
1.24207	0.283833
1.2445	0.287411
1.24692	0.28487
1.24935	0.284896
1.25178	0.293871
1.2542	0.291123
1.25663	0.292123
1.25906	0.297796
1.26148	0.291679
1.26391	0.28659
1.26634	0.289336
1.26876	0.283935
1.27119	0.289694
1.27361	0.292489
1.27604	0.297019
1.27847	0.288749
1.28089	0.291079
1.28332	0.285595
1.28574	0.285889
1.28817	0.290523
1.29059	0.286144
1.29302	0.288272
1.29544	0.285575
1.29787	0.289938
1.30029	0.281315
1.30272	0.291212
1.30514	0.288712
1.30756	0.284792
1.30999	0.281592
1.31241	0.284766
1.31484	0.284621
1.31726	0.283818
1.31969	0.286847
1.32211	0.278516
1.32453	0.280189
1.32696	0.279665
1.32938	0.279324
1.3318	0.277504
1.33422	0.27994
1.33665	0.277513
1.33907	0.273741
1.34149	0.282863
1.34392	0.285545
1.34634	0.275159
1.34876	0.269509
1.35118	0.27247
1.3536	0.274691
1.35603	0.274938
1.35845	0.270398
1.36087	0.270446
1.36329	0.268155
1.36571	0.263315
1.36813	0.268183
1.37055	0.267091
1.37297	0.264257
1.3754	0.259375
1.37782	0.266869
1.38024	0.266203
1.38266	0.263386
1.38508	0.259929
1.3875	0.258268
1.38992	0.256809
1.39234	0.262984
1.39476	0.257891
1.39718	0.257532
1.3996	0.263457
1.40202	0.258524
1.40444	0.252825
1.40686	0.248498
1.40928	0.252802
1.41169	0.251078
1.41411	0.254484
1.41653	0.24695
1.41895	0.249919
1.42137	0.241733
1.42379	0.244609
1.42621	0.240839
1.42862	0.242608
1.43104	0.244758
1.43346	0.243113
1.43588	0.237098
1.43829	0.237764
1.44071	0.237421
1.44313	0.233838
1.44555	0.230008
1.44796	0.228798
1.45038	0.232114
1.4528	0.225973
1.45521	0.230043
1.45763	0.229478
1.46005	0.22381
1.46246	0.224684
1.46488	0.22569
1.4673	0.221157
1.46971	0.217312
1.47213	0.217271
1.47454	0.219563
1.47696	0.216315
1.47937	0.222015
1.48179	0.214483
1.4842	0.212363
1.48662	0.213995
1.48903	0.215239
1.49145	0.211065
1.49386	0.211489
1.49628	0.20945
1.49869	0.204408
1.5011	0.205258
1.50352	0.200579
1.50593	0.201492
1.50835	0.201313
1.51076	0.198147
1.51317	0.198335
1.51559	0.197735
1.518	0.199308
1.52041	0.199486
1.52282	0.193769
1.52524	0.193993
1.52765	0.191043
1.53006	0.191063
1.53248	0.190786
1.53489	0.187987
1.5373	0.188367
1.53971	0.186395
1.54212	0.18597
1.54454	0.18368
1.54695	0.180674
1.54936	0.180986
1.55177	0.18761
1.55418	0.180765
1.55659	0.179504
1.559	0.178578
1.56141	0.172456
1.56382	0.171804
1.56623	0.174159
1.56864	0.170594
1.57105	0.169864
1.57346	0.171341
1.57587	0.166079
1.57828	0.163537
1.58069	0.163139
1.5831	0.162962
1.58551	0.1647
1.58792	0.162911
1.59033	0.16318
1.59274	0.158752
1.59515	0.160153
1.59755	0.161521
1.59996	0.15512
1.60237	0.156914
1.60478	0.155336
1.60719	0.152895
1.60959	0.153245
1.612	0.152219
1.61441	0.152076
1.61682	0.15005
1.61922	0.137531
1.62163	0.145129
1.62404	0.147967
1.62644	0.14703
1.62885	0.147425
1.63126	0.146654
1.63366	0.140778
1.63607	0.142445
1.63848	0.139197
1.64088	0.134079
1.64329	0.139216
1.64569	0.138944
1.6481	0.13792
1.6505	0.138269
1.65291	0.135725
1.65531	0.13688
1.65772	0.130686
1.66012	0.127963
1.66253	0.132894
1.66493	0.133698
1.66734	0.130885
1.66974	0.128498
1.67214	0.131195
1.67455	0.127428
1.67695	0.120768
1.67935	0.123275
1.68176	0.123807
1.68416	0.123619
1.68656	0.125513
1.68897	0.12535
1.69137	0.124107
1.69377	0.122378
1.69617	0.122751
1.69858	0.118434
1.70098	0.116208
1.70338	0.114444
1.70578	0.111407
1.70818	0.112191
1.71059	0.112173
1.71299	0.114449
1.71539	0.11433
1.71779	0.110621
1.72019	0.115433
1.72259	0.108071
1.72499	0.116887
1.72739	0.109599
1.72979	0.105839
1.73219	0.108317
1.73459	0.107261
1.73699	0.108136
1.73939	0.108755
1.74179	0.106725
1.74419	0.103777
1.74659	0.103266
1.74899	0.0994606
1.75139	0.102106
1.75378	0.0992958
1.75618	0.103231
1.75858	0.0996128
1.76098	0.0964474
1.76338	0.0950514
1.76577	0.0903151
1.76817	0.090662
1.77057	0.0913705
1.77297	0.0828545
1.77536	0.0901955
1.77776	0.0853377
1.78016	0.0895273
1.78255	0.090706
1.78495	0.0863075
1.78735	0.0811463
1.78974	0.0892188
1.79214	0.0824106
1.79454	0.0797729
1.79693	0.0848236
1.79933	0.0784352
1.80172	0.084661
1.80412	0.0879192
1.80651	0.0848168
1.80891	0.0742298
1.8113	0.0811268
1.8137	0.080552
1.81609	0.0832839
1.81849	0.0814077
1.82088	0.0829161
1.82327	0.0847112
1.82567	0.0820935
1.82806	0.0832636
1.83045	0.0777806
1.83285	0.0804954
1.83524	0.0756662
1.83763	0.0684059
1.84003	0.0707781
1.84242	0.0702699
1.84481	0.088836
1.8472	0.0847429
1.8496	0.0782608
1.85199	0.0790345
1.85438	0.0652798
1.85677	0.0741927
1.85916	0.0683719
1.86155	0.0606582
1.86394	0.0682283
1.86514	0.0633008