File: data-parchment-25iod.txt
MATERIAL INFORMATION
	Material = 25% iodine on King Arthur parchment
	Thickness = 0.006 mm
SAXS INSTRUMENT
	Source = Cu K-alpha
	Wavelength = 1.5418 A
	Sample-to-detector distance = 106 mm
	Exposure time = 500 s

===============================================================
q (A^-1)	I(q)
===============================================================
0.00203935	12.5117
0.00451643	5.1925
0.00699351	0.508879
0.00947059	-5.95476
0.0119477	-6.442
0.0144248	-2.50105
0.0169018	-0.0782892
0.0193789	-0.252435
0.021856	0.0720524
0.0243331	-1.19181
0.0268101	-1.41982
0.0292872	-0.308208
0.0317643	-5.28706
0.0342413	-5.84781
0.0367184	-0.301561
0.0391954	0.199513
0.0416725	0.441976
0.0441495	0.156331
0.0466266	0.234977
0.0491036	0.345005
0.0515806	0.539554
0.0540577	0.701971
0.0565347	0.757656
0.0590117	1.44202
0.0614887	1.31709
0.0639657	1.5576
0.0664427	1.59639
0.0689197	1.51939
0.0713967	1.48977
0.0738737	1.57794
0.0763507	1.2417
0.0788277	0.991933
0.0813046	0.720042
0.0837816	1.30084
0.0862585	1.20371
0.0887355	0.919122
0.0912124	1.06826
0.0936893	1.31148
0.0961662	0.895264
0.0986431	0.784672
0.10112	1.08078
0.103597	0.875432
0.106074	0.956249
0.108551	0.905806
0.111027	0.91454
0.113504	0.289248
0.115981	0.605851
0.118458	0.622178
0.120935	0.40658
0.123412	0.516763
0.125888	0.407099
0.128365	0.401227
0.130842	0.537339
0.133319	0.587945
0.135796	0.801166
0.138272	0.576706
0.140749	0.411692
0.143226	0.513685
0.145702	0.544302
0.148179	0.675902
0.150656	0.732258
0.153132	0.528119
0.155609	0.602728
0.158086	0.57252
0.160562	0.497313
0.163039	0.286963
0.165515	0.34941
0.167992	0.32842
0.170469	0.295197
0.172945	0.502183
0.175422	0.413208
0.177898	-0.194341
0.180374	0.378313
0.182851	0.385223
0.185327	0.320643
0.187804	0.222654
0.19028	0.0555742
0.192757	-0.0915971
0.195233	0.266256
0.197709	0.310736
0.200186	0.317626
0.202662	0.295464
0.205138	0.387792
0.207615	0.218299
0.210091	0.244321
0.212567	0.398052
0.215043	0.38717
0.21752	-0.11162
0.219996	0.271973
0.222472	0.628435
0.224948	0.605225
0.227424	0.0172059
0.2299	0.00252499
0.232376	0.231649
0.234852	0.152834
0.237329	-0.0571079
0.239805	0.177679
0.242281	-0.121584
0.244757	0.0109241
0.247233	0.453954
0.249709	0.428661
0.252184	0.191263
0.25466	0.0420262
0.257136	0.351331
0.259612	0.104244
0.262088	0.0984878
0.264564	0.182094
0.267039	-0.0987844
0.269515	0.274785
0.271991	0.312905
0.274467	-0.0161385
0.276942	0.269959
0.279418	0.103969
0.281893	0.0953165
0.284369	0.148695
0.286845	0.332235
0.28932	0.258963
0.291796	0.152256
0.294271	0.102275
0.296746	0.203876
0.299222	0.194955
0.301697	-0.00885058
0.304173	0.0891978
0.306648	0.0804298
0.309123	-0.0685587
0.311599	-0.187697
0.314074	0.0715793
0.316549	0.0450379
0.319024	0.121309
0.321499	0.0880267
0.323975	0.151444
0.32645	0.00224851
0.328925	0.00630353
0.3314	0.116922
0.333875	0.416044
0.33635	0.16267
0.338825	0.10063
0.3413	0.187725
0.343775	0.112693
0.346249	0.182217
0.348724	-0.082647
0.351199	-0.0435663
0.353674	0.337047
0.356149	0.273143
0.358623	0.169595
0.361098	0.109963
0.363573	0.105976
0.366047	0.157457
0.368522	0.350828
0.370996	-0.0714754
0.373471	0.0223875
0.375945	0.127661
0.37842	0.11128
0.380894	0.11237
0.383369	-0.0459301
0.385843	0.225852
0.388317	0.222388
0.390791	0.078376
0.393265	-0.0140412
0.39574	0.186176
0.398214	0.0500074
0.400688	-0.0711971
0.403162	-0.0468944
0.405636	-0.0538642
0.40811	-0.0317603
0.410584	-0.135369
0.413058	-0.115424
0.415532	0.11887
0.418006	-0.0667633
0.42048	0.264969
0.422953	0.252613
0.425427	0.019818
0.427901	0.0224609
0.430374	-0.0423636
0.432848	0.0818155
0.435321	0.303823
0.437795	0.199296
0.440269	-0.0425385
0.442742	0.0216361
0.445215	0.00977022
0.447689	0.117012
0.450162	0.137649
0.452635	-0.340719
0.455108	-0.0794295
0.457582	0.0373285
0.460055	0.00483157
0.462528	0.0409893
0.465001	0.072888
0.467474	0.0423905
0.469947	-0.116641
0.47242	-0.0271724
0.474893	0.218658
0.477366	0.119878
0.479839	0.164769
0.482311	0.060801
0.484784	0.0821173
0.487257	0.012811
0.489729	-0.145199
0.492202	0.0491373
0.494675	0.0249642
0.497147	0.0315696
0.499619	-0.0613842
0.502092	-0.124352
0.504564	-0.11437
0.507037	0.0121503
0.509509	0.0132026
0.511981	-0.0136153
0.514453	0.372207
0.516925	-0.133572
0.519397	0.14782
0.521869	0.0357914
0.524341	0.0106004
0.526813	0.0530908
0.529285	0.139648
0.531757	0.0414424
0.534229	0.0607322
0.5367	-0.113579
0.539172	-0.0742533
0.541644	-0.0986077
0.544115	0.011389
0.546587	0.620589
0.549058	0.195966
0.55153	0.0901177
0.554001	-0.00362102
0.556473	-0.0484434
0.558944	0.0941255
0.561415	0.0517893
0.563886	-0.0120536
0.566357	-0.152968
0.568828	-0.104672
0.571299	-0.0241977
0.57377	-0.111607
0.576241	-0.455745
0.578712	-0.0721026
0.581183	-0.112452
0.583654	-0.0595117
0.586124	-0.0335567
0.588595	-0.0756699
0.591066	-0.0741355
0.593536	-0.408535
0.596007	-0.00729986
0.598477	0.0605808
0.600947	0.177409
0.603418	0.102697
0.605888	0.152324
0.608358	-0.0605512
0.610828	0.0246651
0.613298	-0.0879527
0.615768	-0.0853071
0.618238	-0.0908548
0.620708	0.0213977
0.623178	0.238579
0.625648	0.15477
0.628118	0.122277
0.630587	0.146068
0.633057	0.00749259
0.635527	-0.0460334
0.637996	0.0352956
0.640466	-0.000682643
0.642935	0.0590101
0.645404	0.110824
0.647873	-0.0526261
0.650343	0.0630723
0.652812	0.0257282
0.655281	0.156352
0.65775	-0.0459971
0.660219	0.082063
0.662688	-0.0143431
0.665157	-0.00363369
0.667625	-0.0323612
0.670094	-0.00290862
0.672563	0.0773998
0.675032	0.1493
0.6775	-0.0177074
0.679969	0.0349186
0.682437	-0.0180881
0.684905	-0.0923077
0.687374	-0.0708527
0.689842	0.13593
0.69231	0.0713228
0.694778	0.107027
0.697246	0.103684
0.699714	0.273373
0.702182	0.141749
0.70465	0.157264
0.707118	0.0918869
0.709585	-0.0441881
0.712053	-0.0132772
0.714521	-0.401093
0.716988	-0.0677757
0.719456	-0.014576
0.721923	-0.00434336
0.72439	0.108782
0.726858	0.173732
0.729325	0.168151
0.731792	-0.0461757
0.734259	-0.056595
0.736726	0.0540144
0.739193	0.0427159
0.74166	0.173249
0.744126	0.0986219
0.746593	0.156512
0.74906	0.0615107
0.751526	0.0726578
0.753993	0.285729
0.756459	0.231103
0.758925	0.0529675
0.761392	0.0677319
0.763858	-0.0236394
0.766324	0.135921
0.76879	0.0262802
0.771256	0.0516343
0.773722	0.127325
0.776188	0.146805
0.778654	-0.00776297
0.781119	0.106688
0.783585	0.172032
0.786051	0.191397
0.788516	0.0518763
0.790982	0.0626944
0.793447	0.119929
0.795912	0.135274
0.798377	0.116368
0.800843	0.112086
0.803308	0.02545
0.805773	0.0402153
0.808238	0.0596074
0.810702	0.0288805
0.813167	0.162413
0.815632	0.175675
0.818096	0.233039
0.820561	0.132085
0.823025	0.110687
0.82549	0.0123968
0.827954	0.168547
0.830418	0.22814
0.832882	0.149103
0.835347	0.271567
0.837811	0.0839953
0.840274	0.00950378
0.842738	0.0251627
0.845202	0.0188808
0.847666	0.16495
0.850129	0.306492
0.852593	0.0960243
0.855056	0.0866074
0.85752	0.115015
0.859983	0.169039
0.862446	0.163494
0.864909	0.174768
0.867372	0.146615
0.869835	0.15974
0.872298	0.114206
0.874761	0.138059
0.877224	0.00949471
0.879687	0.225084
0.882149	0.0924606
0.884612	0.223711
0.887074	0.207751
0.889536	0.230475
0.891999	0.419596
0.894461	0.325999
0.896923	0.215964
0.899385	0.304085
0.901847	-0.220506
0.904308	0.237841
0.90677	0.0942307
0.909232	0.153836
0.911693	0.157001
0.914155	0.131267
0.916616	0.196677
0.919078	0.0290047
0.921539	0.106767
0.924	0.348855
0.926461	0.307637
0.928922	0.238627
0.931383	0.183062
0.933844	0.193802
0.936305	0.113913
0.938765	0.185373
0.941226	-0.224479
0.943686	0.192718
0.946147	0.249109
0.948607	0.188064
0.951067	0.12153
0.953527	0.350807
0.955987	0.236697
0.958447	0.234834
0.960907	0.259161
0.963367	0.231273
0.965827	0.0275228
0.968286	0.300023
0.970746	0.296233
0.973205	0.274606
0.975664	0.25708
0.978124	0.277077
0.980583	0.255914
0.983042	0.354613
0.985501	0.269949
0.98796	0.437573
0.990418	0.357004
0.992877	0.322977
0.995336	0.300211
0.997794	0.398263
1.00025	0.402648
1.00271	0.530071
1.00517	0.443529
1.00763	0.300063
1.01008	0.24821
1.01254	0.392111
1.015	0.345202
1.01746	0.361855
1.01992	0.295518
1.02237	0.299073
1.02483	0.31816
1.02729	0.319682
1.02975	0.354523
1.0322	0.276829
1.03466	0.342034
1.03712	0.341171
1.03957	0.383697
1.04203	0.32575
1.04449	-0.159796
1.04694	0.350122
1.0494	0.320896
1.05186	0.46223
1.05431	0.366987
1.05677	0.349968
1.05923	0.438014
1.06168	0.432487
1.06414	0.25147
1.06659	0.284051
1.06905	0.285368
1.0715	0.340676
1.07396	0.383429
1.07642	0.183822
1.07887	0.516937
1.08133	0.374057
1.08378	0.365993
1.08624	0.369763
1.08869	0.398644
1.09115	0.320227
1.0936	0.429335
1.09606	0.459926
1.09851	0.351147
1.10097	0.323573
1.10342	0.334735
1.10587	0.399664
1.10833	0.336844
1.11078	0.353397
1.11324	0.409097
1.11569	0.455979
1.11814	0.357906
1.1206	0.42167
1.12305	0.372243
1.1255	0.503241
1.12796	0.412456
1.13041	0.418019
1.13286	0.374469
1.13532	0.472185
1.13777	0.387313
1.14022	0.339686
1.14267	0.459785
1.14513	0.310822
1.14758	0.235685
1.15003	0.419076
1.15248	0.4635
1.15494	0.390264
1.15739	0.349937
1.15984	0.276484
1.16229	0.364892
1.16474	0.414625
1.1672	0.252205
1.16965	0.260275
1.1721	0.282503
1.17455	0.376891
1.177	0.346382
1.17945	0.351229
1.1819	0.32123
1.18435	0.293393
1.1868	0.487455
1.18926	0.32313
1.19171	0.315782
1.19416	0.254373
1.19661	0.335355
1.19906	0.291654
1.20151	0.258363
1.20396	0.345675
1.20641	0.313755
1.20886	0.231867
1.21131	0.269236
1.21375	0.252018
1.2162	0.251411
1.21865	0.313233
1.2211	0.28437
1.22355	0.338624
1.226	0.194182
1.22845	0.254516
1.2309	0.201153
1.23335	0.280652
1.2358	0.124483
1.23824	0.294073
1.24069	0.336697
1.24314	0.316154
1.24559	0.252226
1.24804	0.246621
1.25048	0.0956445
1.25293	0.154673
1.25538	0.258143
1.25783	0.267973
1.26027	0.0911834
1.26272	0.186146
1.26517	0.229962
1.26762	0.137884
1.27006	0.206199
1.27251	0.177928
1.27496	0.153265
1.2774	-0.0285374
1.27985	0.118235
1.2823	0.320451
1.28474	0.424616
1.28719	0.288145
1.28963	0.185611
1.29208	0.221237
1.29452	0.147231
1.29697	0.161782
1.29942	0.224483
1.30186	0.134848
1.30431	0.350701
1.30675	0.218872
1.3092	0.209718
1.31164	0.196538
1.31409	0.26734
1.31653	0.268846
1.31898	0.20099
1.32142	0.187327
1.32386	0.247593
1.32631	0.0502937
1.32875	0.208111
1.3312	0.144875
1.33364	0.214801
1.33608	0.170909
1.33853	0.218054
1.34097	0.318899
1.34341	0.207353
1.34586	0.331288
1.3483	0.153018
1.35074	0.197163
1.35319	0.224317
1.35563	0.210645
1.35807	0.35618
1.36051	0.266089
1.36295	0.264781
1.3654	0.461579
1.36784	0.297405
1.37028	0.292832
1.37272	0.276671
1.37516	0.309624
1.37761	0.296526
1.38005	0.302169
1.38249	0.290183
1.38493	0.316534
1.38737	0.281779
1.38981	0.272827
1.39225	0.393859
1.39469	0.313768
1.39713	0.456922
1.39957	0.511231
1.40201	0.364917
1.40445	0.415821
1.40689	0.409105
1.40933	0.404577
1.41177	0.388559
1.41421	0.478175
1.41665	0.472537
1.41909	0.491186
1.42153	0.491276
1.42397	0.474965
1.42641	0.504366
1.42885	0.456841
1.43129	0.552622
1.43372	0.577976
1.43616	0.433583
1.4386	0.525111
1.44104	0.451577
1.44348	0.483702
1.44592	0.542477
1.44835	0.564575
1.45079	0.583774
1.45323	0.568263
1.45567	0.457203
1.4581	0.568342
1.46054	0.525712
1.46298	0.50384
1.46541	0.551413
1.46785	0.475496
1.47029	0.46624
1.47272	0.503094
1.47516	0.396722
1.4776	0.576475
1.48003	0.413659
1.48247	0.438294
1.4849	0.437304
1.48734	0.560576
1.48977	0.514459
1.49221	0.553944
1.49464	0.477931
1.49708	0.447143
1.49951	0.533522
1.50195	0.520378
1.50438	0.548668
1.50682	0.563267
1.50925	0.601983
1.51169	0.653129
1.51412	0.522076
1.51655	0.461543
1.51899	0.527808
1.52142	0.554714
1.52386	0.581557
1.52629	0.592357
1.52872	0.493961
1.53116	0.656958
1.53359	0.621088
1.53602	0.62232
1.53845	0.667046
1.54089	0.587712
1.54332	0.606787
1.54575	0.74912
1.54818	0.862364
1.55061	0.9496
1.55305	0.78918
1.55548	0.745928
1.55791	0.75652
1.56034	0.749015
1.56277	0.778564
1.5652	0.842956
1.56763	0.881708
1.57006	0.904238
1.5725	0.876052
1.57492	0.878199
1.57736	0.954662
1.57979	0.97898
1.58222	0.80152
1.58465	0.934318
1.58708	0.938982
1.5895	0.868219
1.59193	0.816056
1.59436	0.950328
1.59679	0.850467
1.59922	0.805141
1.60165	0.819321
1.60408	0.81884
1.60651	0.857567
1.60894	0.724518
1.61136	0.699236
1.61379	0.83408
1.61622	0.786799
1.61865	0.686129
1.62108	0.740301
1.6235	0.73172
1.62593	0.229566
1.62836	0.698565
1.63079	0.677165
1.63321	0.569587
1.63564	0.571115
1.63807	0.595132
1.64049	0.5613
1.64292	0.407747
1.64535	0.5126
1.64777	0.482882
1.6502	0.443112
1.65262	0.505101
1.65505	0.64133
1.65747	0.901832
1.6599	0.351149
1.66232	0.363169
1.66475	0.341025
1.66717	0.345124
1.6696	0.322373
1.67202	0.396427
1.67445	0.377427
1.67687	0.269663
1.6793	0.316846
1.68172	0.293612
1.68414	0.301111
1.68657	0.238923
1.68899	0.248793
1.69141	0.186349
1.69384	0.228341
1.69626	0.25615
1.69868	-0.0887068
1.7011	0.319658
1.70353	0.306284
1.70595	0.295403
1.70837	0.320485
1.71079	0.192081
1.71321	0.197073
1.71564	0.25727
1.71806	0.25708
1.72048	0.303324
1.7229	0.160719
1.72532	0.119063
1.72774	0.212838
1.73016	0.168318
1.73258	0.140282
1.735	0.155884
1.73742	0.281419
1.73984	0.253464
1.74226	0.238427
1.74468	0.308552
1.7471	0.308181
1.74952	0.180492
1.75194	0.250481
1.75436	0.231994
1.75678	0.136011
1.7592	0.159466
1.76162	0.190685
1.76404	0.103569
1.76645	0.0748594
1.76887	0.0613476
1.77129	0.0656935
1.77371	0.0758473
1.77613	-0.000468731
1.77854	0.0620663
1.78096	0.153426
1.78338	0.196309
1.78579	0.102056
1.78821	0.225308
1.79063	0.039385
1.79305	0.0769585
1.79546	0.00297719
1.79788	0.0973657
1.80029	0.171465
1.80271	-0.314854
1.80512	0.132731
1.80754	-0.0247234
1.80996	0.102509
1.81237	0.0733975
1.81479	-0.12141
1.8172	0.200277
1.81962	0.126628
1.82203	0.0769132
1.82444	0.178474
1.82686	0.0980572
1.82927	0.0461654
1.83169	0.14949
1.8341	0.0995337
1.83651	0.102632
1.83893	0.243685
1.84134	0.121442
1.84375	-0.027689
1.84616	0.086302
1.84858	-0.0343859
1.85099	0.107897
1.8534	0.0643884
1.85581	0.228077
1.85823	0.0987506
1.86064	-0.0508424
1.86305	0.0649132
1.86546	0.185317
1.86787	-0.112863
1.87028	-0.553763
1.87269	-0.432199
1.87511	0.0313748
1.87752	0.211482