File: data-whewellite.txt
MATERIAL INFORMATION
	Material = Whewellite (powder)
SAXS INSTRUMENT
	Source = Cu K-alpha
	Wavelength = 1.5418 A
	Sample-to-detector distance = 106 mm
	Exposure time = 500 s

===============================================================
q (A^-1)	I(q)
===============================================================
0.00178309	0.525511
0.00423819	0.530175
0.00669328	0.401255
0.00914837	0.379936
0.0116035	0.309407
0.0140586	0.213279
0.0165136	0.175754
0.0189687	0.0324464
0.0214238	0.15559
0.0238789	-0.0933239
0.026334	0.673212
0.0287891	1.22505
0.0312441	13.885
0.0336992	17.4788
0.0361543	7.82491
0.0386094	0.445542
0.0410644	0.487101
0.0435195	0.00875772
0.0459745	0.15073
0.0484296	0.0639889
0.0508846	0.0876658
0.0533397	0.0581504
0.0557947	0.0504284
0.0582498	0.0388886
0.0607048	0.033817
0.0631598	0.0349628
0.0656148	0.0270238
0.0680698	0.0239533
0.0705248	0.0263444
0.0729798	0.0181148
0.0754348	0.0146534
0.0778898	0.0197024
0.0803448	0.0156697
0.0827998	0.0154159
0.0852547	0.0155984
0.0877097	0.00914436
0.0901646	0.0183287
0.0926196	0.0151362
0.0950745	0.00529848
0.0975294	0.0064368
0.0999843	0.00799416
0.102439	0.0001242
0.104894	-0.00120852
0.107349	0.00062532
0.109804	0.00691308
0.112259	-0.00071928
0.114714	0.00252288
0.117169	0.0047034
0.119623	0.006426
0.122078	0.0119707
0.124533	0.00325728
0.126988	-0.00387828
0.129442	0.00028836
0.131897	0.00349488
0.134352	-0.00195264
0.136807	-0.0018738
0.139262	0.00222696
0.141716	0.00168588
0.144171	-0.00037152
0.146626	6.48e-06
0.14908	0.0048816
0.151535	0.00153684
0.15399	0.008181
0.156444	0.0023058
0.158899	0.00211788
0.161354	0.00755892
0.163808	-0.00013392
0.166263	0.0027
0.168717	0.0003618
0.171172	-0.00243
0.173626	0.00269136
0.176081	0.00031644
0.178536	0.00396468
0.18099	0.00112752
0.183445	0.00089424
0.185899	0.00114048
0.188354	0.00319788
0.190808	0.00297432
0.193262	0.00151092
0.195717	0.00167832
0.198171	-0.00101952
0.200625	-0.00070848
0.20308	-0.00030672
0.205534	0.00173988
0.207988	0.00113832
0.210443	0.0017658
0.212897	0.00014256
0.215351	-0.00446472
0.217805	-0.00097092
0.22026	0.0002808
0.222714	0.00050976
0.225168	-0.00345492
0.227622	0.00291168
0.230076	0.00039744
0.23253	3.24e-05
0.234985	7.344e-05
0.237439	-0.00093852
0.239893	-0.00306288
0.242347	0.00077544
0.244801	-0.0006426
0.247255	0.00084348
0.249709	0.0012636
0.252162	-0.00122796
0.254616	-0.00020088
0.25707	-3.348e-05
0.259524	0.00474876
0.261978	-0.00151848
0.264432	-0.00147744
0.266886	0.0014904
0.269339	0.00060156
0.271793	-7.776e-05
0.274247	-0.0001836
0.2767	0.00069336
0.279154	-0.0006102
0.281608	0.00131436
0.284061	-0.00030132
0.286515	0.00146772
0.288969	0.00145584
0.291422	-0.00025596
0.293876	0.00094716
0.296329	0.00340416
0.298783	0.00072684
0.301236	0.00130032
0.303689	-0.00017928
0.306143	-0.0012528
0.308596	-0.00065772
0.311049	0.00202068
0.313503	0.002835
0.315956	-0.00171612
0.318409	-0.00053892
0.320862	-3.024e-05
0.323316	0.00716796
0.325769	0.00126684
0.328222	0.00270432
0.330675	-0.00131328
0.333128	0.0010422
0.335581	0.00164376
0.338034	0.00220968
0.340487	0.0005076
0.34294	0.00154116
0.345393	0.00119016
0.347846	0.00200124
0.350298	0.00259524
0.352751	0.00269568
0.355204	0.002781
0.357657	0.0019494
0.36011	0.0032022
0.362562	0.00086184
0.365015	0.00202284
0.367468	-2.268e-05
0.36992	0.0012258
0.372373	0.0010638
0.374825	0.00127116
0.377278	0.00137484
0.37973	-0.00014688
0.382182	-0.000675
0.384635	0.00081756
0.387087	-0.00223128
0.38954	-0.0024084
0.391992	-0.00803412
0.394444	-0.00184248
0.396896	0.00220212
0.399348	0.0033372
0.4018	0.00314496
0.404253	0.00208872
0.406705	0.00511488
0.409157	0.00084348
0.411609	0.00186192
0.414061	0.00031752
0.416512	0.00359424
0.418964	0.00343764
0.421416	0.0029214
0.423868	-0.00155952
0.42632	0.00100764
0.428771	0.00231444
0.431223	0.00279288
0.433675	4.428e-05
0.436126	-0.00124092
0.438578	-0.00188568
0.441029	0.0027648
0.443481	0.0027054
0.445932	0.00282096
0.448384	0.00231336
0.450835	-9.828e-05
0.453286	0.00060372
0.455738	0.00280152
0.458189	0.00179388
0.46064	0.00010476
0.463091	-9.18e-05
0.465542	-0.0004968
0.467993	0.00367416
0.470444	0.00286956
0.472895	0.00164808
0.475346	0.00211464
0.477797	-0.0005994
0.480248	-0.00194616
0.482699	0.00240624
0.48515	0.00079704
0.4876	0.00187596
0.490051	0.00176256
0.492502	0.00091584
0.494952	-0.00041796
0.497403	0.00250344
0.499853	0.00420336
0.502304	0.00269244
0.504754	0.00017388
0.507205	-0.00061236
0.509655	-0.0005292
0.512105	-0.00016632
0.514555	0.00047952
0.517006	0.00337392
0.519456	0.00209196
0.521906	-0.00110808
0.524356	0.00101196
0.526806	0.0006102
0.529256	0.00070956
0.531705	-0.00071172
0.534155	-0.00020304
0.536605	0.00233172
0.539055	0.00330264
0.541505	0.0010422
0.543954	-0.00069336
0.546404	-0.00101304
0.548853	-0.00020412
0.551303	-0.00084024
0.553752	0.00142776
0.556202	-0.00046872
0.558651	-0.0002322
0.5611	-0.00052056
0.56355	0.00088668
0.565999	0.00141372
0.568448	0.00016092
0.570897	0.00937224
0.573346	0.0026136
0.575795	-0.00625752
0.578244	-0.00187812
0.580693	-0.00039744
0.583142	-0.00101952
0.585591	-4.428e-05
0.588039	0.00053568
0.590488	-0.00017712
0.592936	0.00029484
0.595385	-0.00118044
0.597834	-0.00154872
0.600282	0.00179172
0.60273	0.00090936
0.605179	0.00183708
0.607627	-0.0001242
0.610075	-0.00062748
0.612524	-0.0006156
0.614972	-0.00106596
0.61742	-0.0009288
0.619868	-0.0011178
0.622316	-0.00028404
0.624764	-0.00010152
0.627211	-0.00107676
0.629659	-0.00176364
0.632107	-0.00221616
0.634555	0.00029268
0.637002	-0.00097848
0.63945	-0.00033156
0.641897	-0.00104652
0.644345	-0.00021708
0.646792	0.00065016
0.649239	-0.00123876
0.651687	-0.00030456
0.654134	-0.00189216
0.656581	0.00012744
0.659028	0.0007614
0.661475	0.00023112
0.663922	-0.00021924
0.666369	-0.00053352
0.668816	6.804e-05
0.671263	-0.0017226
0.673709	-0.00084996
0.676156	-0.00094284
0.678603	-0.00171288
0.681049	0.00017928
0.683496	0.00138672
0.685942	5.4e-05
0.688388	0.001566
0.690835	0.00034668
0.693281	-0.0006048
0.695727	-0.00183168
0.698173	0.00026352
0.700619	-0.00086616
0.703065	-0.00072144
0.705511	0.00165996
0.707957	-0.00143208
0.710403	0.00100008
0.712848	0.00173232
0.715294	0.00159408
0.71774	0.000108
0.720185	-0.00095364
0.722631	-0.0012204
0.725076	-0.00141588
0.727521	-0.00121392
0.729967	8.748e-05
0.732412	0.0010692
0.734857	-0.0017496
0.737302	-0.00115884
0.739747	0.00058428
0.742192	-0.00023328
0.744637	-0.00040716
0.747082	-0.00073332
0.749526	-0.00053244
0.751971	-0.00108
0.754416	-0.00041148
0.75686	-0.0006372
0.759305	-0.00027108
0.761749	0.00015012
0.764193	-0.00169452
0.766637	-0.00024624
0.769082	-0.00011448
0.771526	0.00047088
0.77397	-0.00231228
0.776414	-0.00128196
0.778858	0.00039636
0.781301	0.00092232
0.783745	-0.00138348
0.786189	0.00093852
0.788633	-0.00045036
0.791076	0.00015552
0.79352	0.00035316
0.795963	0.00012636
0.798406	0.00050652
0.800849	0.00535464
0.803293	8.856e-05
0.805736	0.000189
0.808179	-0.0007128
0.810622	-0.00088236
0.813065	0.00064044
0.815507	0.0011232
0.81795	-1.728e-05
0.820393	-8.64e-05
0.822835	-0.00082296
0.825278	-0.00132948
0.82772	-0.00041688
0.830163	-0.00154548
0.832605	0.00069228
0.835047	-0.0013014
0.837489	-0.00229176
0.839931	-0.00021492
0.842373	0.00198504
0.844815	0.00170316
0.847257	-0.0009342
0.849699	-0.00103356
0.852141	-0.00093636
0.854582	-0.00020736
0.857024	0.0007128
0.859465	-0.0006048
0.861907	-0.00202932
0.864348	-0.00073548
0.866789	-0.00099684
0.86923	0.00040068
0.871671	-0.00037044
0.874112	-0.00124848
0.876553	-0.00157356
0.878994	-0.00132732
0.881435	-0.00185544
0.883875	0.00062856
0.886316	0.00206172
0.888756	0.0003564
0.891197	0.00022788
0.893637	-0.00834408
0.896077	0.00162756
0.898517	-0.00021708
0.900958	-0.00181872
0.903398	-0.0019386
0.905837	-0.00081432
0.908277	-0.000432
0.910717	-0.00780408
0.913157	-0.0009936
0.915596	0.00059184
0.918036	-0.00148068
0.920475	-0.00059832
0.922915	0.00054864
0.925354	-0.00153252
0.927793	0.00093852
0.930232	0.00089208
0.932671	0.00050652
0.93511	0.0005454
0.937549	1.08e-05
0.939988	-0.00041148
0.942426	-0.0003132
0.944865	-6.264e-05
0.947303	-0.00090936
0.949742	-0.00124524
0.95218	-0.00046872
0.954618	-0.00017712
0.957057	-0.00067716
0.959495	-0.00011772
0.961933	-0.00022356
0.964371	0.00075276
0.966808	0.0003618
0.969246	-0.00020088
0.971684	-0.0001458
0.974121	-0.0029376
0.976559	-0.00174636
0.978996	-0.00216216
0.981433	-0.000702
0.98387	0.00085968
0.986308	0.00094176
0.988745	-0.00033372
0.991182	-1.404e-05
0.993618	0.0016092
0.996055	0.00069984
0.998492	0.0006372
1.00093	9.612e-05
1.00337	0.00052596
1.0058	0.00037584
1.00824	0.00036504
1.01067	2.16e-05
1.01311	0.00248184
1.01555	0.00143532
1.01798	0.00026568
1.02042	0.00053568
1.02285	-0.00074304
1.02529	0.0011772
1.02772	0.00143424
1.03016	0.0021276
1.0326	0.00267084
1.03503	0.00121392
1.03747	0.00507276
1.0399	0.0030942
1.04234	0.0036558
1.04477	0.0067392
1.0472	0.0115841
1.04964	0.0146437
1.05207	0.0213646
1.05451	0.0213214
1.05694	0.0180749
1.05938	0.0178654
1.06181	0.0265129
1.06425	0.0228442
1.06668	0.0235386
1.06911	0.01057
1.07155	0.00641304
1.07398	0.00788184
1.07642	0.00789372
1.07885	0.0109728
1.08128	0.0100948
1.08372	0.00869508
1.08615	0.0075816
1.08858	0.00825444
1.09102	0.00599724
1.09345	0.003618
1.09588	0.00265356
1.09831	0.00373356
1.10075	0.00231336
1.10318	0.00246888
1.10561	0.003267
1.10804	0.00166968
1.11048	0.0016686
1.11291	0.00141804
1.11534	0.00073224
1.11777	0.00247428
1.1202	0.00369792
1.12264	0.00318384
1.12507	0.00027648
1.1275	0.00142776
1.12993	0.00200772
1.13236	0.00051732
1.13479	0.00075168
1.13722	0.00110268
1.13965	0.00158868
1.14209	0.00168372
1.14452	0.00295272
1.14695	0.00077436
1.14938	0.00036288
1.15181	0.00014364
1.15424	0.00026892
1.15667	0.00031104
1.1591	0.0016578
1.16153	0.00195048
1.16396	0.00033912
1.16639	-0.0058482
1.16882	0.000378
1.17125	0.0006858
1.17368	0.0014796
1.17611	0.0017172
1.17854	0.00135756
1.18097	0.00155196
1.1834	-0.00141912
1.18582	0.00118476
1.18825	0.00023976
1.19068	0.00027648
1.19311	0.0010962
1.19554	0.0011232
1.19797	0.00099684
1.2004	0.00228636
1.20283	0.00087048
1.20525	0.00139104
1.20768	0.00197748
1.21011	0.00184896
1.21254	0.00051732
1.21496	-0.002484
1.21739	0.001647
1.21982	0.00147528
1.22225	0.00107352
1.22467	0.00211464
1.2271	0.00165672
1.22953	0.00145044
1.23195	0.00155736
1.23438	0.0017712
1.23681	0.0017172
1.23924	0.00195804
1.24166	0.00143316
1.24409	0.00132624
1.24652	0.00141696
1.24894	0.00108216
1.25137	0.00107028
1.25379	0.00108216
1.25622	0.00117396
1.25864	0.00062748
1.26107	0.00117396
1.2635	0.0005346
1.26592	0.00105732
1.26835	0.00144936
1.27077	0.0006048
1.2732	0.000648
1.27562	0.00081216
1.27805	0.0016848
1.28047	0.00143424
1.2829	-0.00027432
1.28532	0.00101628
1.28774	-0.00038232
1.29017	0.00109944
1.29259	0.00082188
1.29502	0.00196452
1.29744	-0.00093636
1.29986	-0.00078516
1.30229	-0.00050436
1.30471	0.00169128
1.30713	0.00091476
1.30956	0.00155844
1.31198	0.00178956
1.3144	0.00128628
1.31683	0.00134676
1.31925	-0.00031968
1.32167	0.00156276
1.32409	0.00047304
1.32652	0.00091692
1.32894	0.00117504
1.33136	0.00014796
1.33378	0.0020034
1.33621	0.00302076
1.33863	0.00150768
1.34105	0.001512
1.34347	0.00111024
1.34589	0.00129924
1.34831	-0.00019872
1.35073	0.00049572
1.35315	0.00118368
1.35558	0.00112644
1.358	0.00145476
1.36042	0.00252828
1.36284	0.00299808
1.36526	0.00249156
1.36768	0.0014526
1.3701	0.00121284
1.37252	0.00160272
1.37494	-0.0007722
1.37736	0.00155088
1.37978	0.00083916
1.3822	0.00219132
1.38462	0.00353268
1.38704	0.00348516
1.38946	0.0020088
1.39188	0.00125064
1.3943	0.0026406
1.39671	0.00383832
1.39913	0.0021222
1.40155	0.00157464
1.40397	0.00219672
1.40639	0.0011502
1.40881	0.00129168
1.41122	0.00108648
1.41364	0.00107352
1.41606	-0.00019656
1.41848	0.00087048
1.4209	0.00188568
1.42331	0.00088128
1.42573	-0.00069876
1.42815	0.00196668
1.43056	0.0005508
1.43298	0.00168156
1.4354	0.00026352
1.43781	0.00019224
1.44023	-0.00025272
1.44265	0.00165564
1.44506	0.0017118
1.44748	0.00182088
1.4499	-0.00015336
1.45231	0.00158112
1.45473	0.001728
1.45714	0.00137484
1.45956	0.00184032
1.46197	0.00098712
1.46439	0.00246888
1.4668	0.00150552
1.46922	0.0023598
1.47163	0.00065016
1.47405	-0.00525312
1.47646	0.00094608
1.47888	0.00081756
1.48129	0.00014904
1.48371	-0.0017226
1.48612	0.00212112
1.48853	0.00115452
1.49095	0.00841968
1.49336	0.0081432
1.49578	-0.00032292
1.49819	0.00193644
1.5006	0.00193212
1.50301	0.00251208
1.50543	0.00085968
1.50784	0.00217188
1.51025	0.00221508
1.51266	0.00213084
1.51508	0.00124308
1.51749	0.00185652
1.5199	0.00039744
1.52231	0.00176472
1.52472	0.00148392
1.52714	0.00090288
1.52955	0.00044496
1.53196	0.00178416
1.53437	0.00123876
1.53678	0.00164808
1.53919	0.0010638
1.5416	0.0017388
1.54401	0.00014688
1.54643	0.00034128
1.54884	0.00093636
1.55125	0.0010692
1.55366	0.00092124
1.55607	6.156e-05
1.55848	0.00127872
1.56089	0.00013392
1.5633	0.00098712
1.5657	0.0007722
1.56811	0.00058212
1.57052	0.0006534
1.57293	0.0009882
1.57534	0.00257256
1.57775	0.0027216
1.58016	0.00061344
1.58257	0.00153576
1.58498	0.00137052
1.58738	0.00118908
1.58979	0.00144072
1.5922	0.00139212
1.59461	0.0011772
1.59702	9.18e-05
1.59942	0.00176148
1.60183	0.0014202
1.60424	0.0010854
1.60664	0.00217404
1.60905	0.00172476
1.61146	0.00065232
1.61386	0.00137376
1.61627	0.00234252
1.61868	0.00084672
1.62108	0.00102168
1.62349	0.00048708
1.62589	0.00145044
1.6283	0.00069012
1.63071	0.00072144
1.63311	0.00089856
1.63552	0.00131544
1.63792	0.00232524
1.64033	0.00132192
1.64273	0.00081972
1.64514	0.00117612
1.64754	0.00082404
1.64994	0.00067392
1.65235	0.00308664
1.65475	0.0030132
1.65716	0.00279396
1.65956	0.0021438
1.66196	0.00176688
1.66437	0.0013068
1.66677	0.00125388
1.66917	0.00110052
1.67158	0.00155952
1.67398	0.00086616
1.67638	0.00134352
1.67879	0.00150444
1.68119	0.00134676
1.68359	-0.00053676
1.68599	0.00085104
1.68839	0.00040824
1.6908	0.00037584
1.6932	0.00126036
1.6956	0.00439452
1.698	0.0045252
1.7004	0.00475308
1.7028	0.00338796
1.7052	0.00259308
1.7076	0.00351432
1.71	0.00511272
1.7124	0.0067608
1.7148	0.00944568
1.7172	0.0114124
1.7196	0.0140713
1.722	0.0134276
1.7244	0.0140486
1.7268	0.010233
1.7292	0.009531
1.7316	0.00962064
1.734	0.00631584
1.7364	0.0037746
1.7388	0.00228096
1.7412	0.0026568
1.74359	0.0029376
1.74599	0.00168696
1.74839	7.668e-05
1.75079	7.56e-06
1.75319	-0.00074628
1.75558	0.00793584
1.75798	8.1e-05
1.76038	-7.02e-05
1.76278	0.00080784
1.76517	0.00107244
1.76757	-0.00051084
1.76997	0.00069984
1.77236	-0.00068148
1.77476	-0.00139428
1.77716	-0.00156384
1.77955	-0.00065556
1.78195	-0.0007992
1.78434	0.00017172
1.78674	-0.0007722
1.78913	0.00055512
1.79153	-0.00083592
1.79392	-0.00102708
1.79632	-0.0018846
1.79871	0.00012096
1.80111	8.64e-05
1.8035	-0.00039852
1.8059	-0.00026352
1.80829	-0.0013608
1.81068	-0.00063828
1.81308	-0.00100872
1.81547	-0.00110268
1.81786	-0.00512784
1.82026	-0.00284472
1.82265	-0.00228096
1.82504	-0.00039528
1.82743	-0.00111564
1.82983	-0.0012906
1.83222	-0.00236736
1.83461	-0.00030024
1.837	-0.00209844
1.8394	-0.00229932
1.84179	-0.00586224
1.84418	-0.0005238
1.84657	-0.00115992
1.84896	-0.00122688
1.85135	-0.00682992
1.85374	-0.00364824
1.85613	-0.00110376
1.85852	-0.0003726
1.86091	-0.00119448
1.86331	-0.00339984
1.8645	-0.00414504