File: data-flx9070.txt
MATERIAL INFORMATION
	Material = Flx9070
	Thickness = 1 mm
SAXS INSTRUMENT
	Source = Cu K-alpha
	Wavelength = 1.5418 A
	Sample-to-detector distance = 106 mm
	Exposure time = 60 s

===============================================================
q (A^-1)	I(q)
===============================================================
0.00171434	-0.000522614
0.00417038	-0.115449
0.00662642	0.0885994
0.00908246	0.094624
0.0115385	0.0831385
0.0139945	0.0611039
0.0164506	0.0229982
0.0189066	0.0216689
0.0213626	0.0156866
0.0238187	0.0144579
0.0262747	0.0223876
0.0287307	0.000570525
0.0311868	0.0100286
0.0336428	-0.00456231
0.0360988	0.010839
0.0385548	-0.0134073
0.0410108	-0.0113367
0.0434668	-0.0130386
0.0459228	-0.00702093
0.0483788	0.00200535
0.0508348	-0.0191596
0.0532908	-0.00409391
0.0557468	-0.00439399
0.0582028	-0.00227926
0.0606587	0.00758263
0.0631147	0.0175861
0.0655707	0.0297316
0.0680266	0.041938
0.0704826	0.0541665
0.0729385	0.060975
0.0753945	0.086508
0.0778504	0.104741
0.0803063	0.0970971
0.0827623	0.108164
0.0852182	0.125566
0.0876741	0.118357
0.09013		0.115931
0.0925858	0.115301
0.0950417	0.129712
0.0974976	0.12469
0.0999535	0.108189
0.102409	0.111195
0.104865	0.108601
0.107321	0.114808
0.109777	0.0967387
0.112233	0.0950848
0.114688	0.0910527
0.117144	0.101126
0.1196		0.115528
0.122056	0.10714
0.124512	0.108003
0.126967	0.0978583
0.129423	0.105233
0.131879	0.0853742
0.134334	0.089998
0.13679		0.0908642
0.139246	0.0967993
0.141701	0.0886344
0.144157	0.0817843
0.146613	0.0936815
0.149068	0.0943482
0.151524	0.0933001
0.15398		0.100102
0.156435	0.0903914
0.158891	0.0911583
0.161346	0.088729
0.163802	0.0910111
0.166258	0.0853834
0.168713	0.0915299
0.171169	0.0898439
0.173624	0.0891221
0.17608		0.0960566
0.178535	0.101155
0.18099		0.110073
0.183446	0.102215
0.185901	0.099957
0.188357	0.103314
0.190812	0.0858843
0.193267	0.0972991
0.195723	0.0935391
0.198178	0.0931501
0.200633	0.0899996
0.203089	0.10076
0.205544	0.108652
0.207999	0.103758
0.210454	0.113238
0.21291		0.103205
0.215365	0.110887
0.21782		0.10059
0.220275	0.107698
0.22273		0.105771
0.225185	0.112448
0.227641	0.117713
0.230096	0.119148
0.232551	0.116446
0.235006	0.105558
0.237461	0.106828
0.239916	0.112588
0.242371	0.115283
0.244826	0.1129
0.24728		0.113534
0.249735	0.10542
0.25219		0.109039
0.254645	0.107842
0.2571		0.112264
0.259555	0.110312
0.26201		0.127586
0.264464	0.125946
0.266919	0.115832
0.269374	0.134352
0.271828	0.135612
0.274283	0.131423
0.276738	0.129066
0.279192	0.130002
0.281647	0.132657
0.284101	0.135749
0.286556	0.129561
0.289011	0.140852
0.291465	0.134806
0.293919	0.145309
0.296374	0.145032
0.298828	0.153444
0.301283	0.136441
0.303737	0.131903
0.306191	0.153069
0.308646	0.143008
0.3111		0.139018
0.313554	0.146767
0.316008	0.147785
0.318462	0.148541
0.320917	0.154311
0.323371	0.149687
0.325825	0.150986
0.328279	0.146042
0.330733	0.132994
0.333187	0.139756
0.335641	0.142885
0.338095	0.150261
0.340549	0.155238
0.343003	0.158665
0.345457	0.157837
0.34791		0.159444
0.350364	0.158448
0.352818	0.150532
0.355272	0.151097
0.357725	0.158104
0.360179	0.147068
0.362633	0.154671
0.365086	0.159017
0.36754		0.152195
0.369993	0.150424
0.372447	0.149069
0.3749		0.156157
0.377354	0.157717
0.379807	0.156752
0.38226		0.160548
0.384714	0.14888
0.387167	0.147076
0.38962		0.149666
0.392073	0.154129
0.394527	0.164212
0.39698		0.159725
0.399433	0.158546
0.401886	0.143037
0.404339	0.155998
0.406792	0.149673
0.409245	0.153131
0.411698	0.164477
0.414151	0.14682
0.416604	0.146873
0.419056	0.149215
0.421509	0.15066
0.423962	0.145091
0.426415	0.14085
0.428867	0.148198
0.43132		0.150687
0.433773	0.151939
0.436225	0.145718
0.438678	0.145368
0.44113		0.146811
0.443582	0.149336
0.446035	0.142842
0.448487	0.143785
0.450939	0.13802
0.453392	0.141814
0.455844	0.144208
0.458296	0.141285
0.460748	0.142971
0.4632		0.135507
0.465652	0.138453
0.468104	0.139178
0.470556	0.133148
0.473008	0.133596
0.47546		0.130177
0.477912	0.130164
0.480364	0.129954
0.482815	0.127864
0.485267	0.131944
0.487719	0.130576
0.49017		0.126758
0.492622	0.130159
0.495074	0.1283
0.497525	0.127672
0.499976	0.12781
0.502428	0.130404
0.504879	0.127532
0.507331	0.123498
0.509782	0.126747
0.512233	0.123703
0.514684	0.126332
0.517135	0.124165
0.519586	0.124943
0.522037	0.120922
0.524488	0.119165
0.526939	0.116273
0.52939		0.116073
0.531841	0.120571
0.534292	0.118706
0.536743	0.11504
0.539193	0.115238
0.541644	0.122034
0.544094	0.118948
0.546545	0.11411
0.548995	0.107214
0.551446	0.117848
0.553896	0.116679
0.556347	0.11311
0.558797	0.112085
0.561247	0.10803
0.563697	0.11476
0.566147	0.114985
0.568597	0.116076
0.571047	0.109187
0.573497	0.112097
0.575947	0.111046
0.578397	0.115184
0.580847	0.109883
0.583297	0.112921
0.585747	0.120163
0.588196	0.110787
0.590646	0.105417
0.593095	0.105372
0.595545	0.105152
0.597994	0.103699
0.600444	0.110388
0.602893	0.098572
0.605342	0.103561
0.607792	0.110463
0.610241	0.105637
0.61269		0.102233
0.615139	0.106664
0.617588	0.0993407
0.620037	0.107452
0.622486	0.105052
0.624935	0.100061
0.627383	0.0992329
0.629832	0.102294
0.632281	0.102842
0.634729	0.107776
0.637178	0.0999466
0.639626	0.102828
0.642075	0.0998782
0.644523	0.0961253
0.646972	0.0977512
0.64942		0.10438
0.651868	0.106177
0.654316	0.106128
0.656764	0.105364
0.659212	0.102486
0.66166		0.101566
0.664108	0.100256
0.666556	0.104643
0.669004	0.103449
0.671452	0.10242
0.673899	0.101498
0.676347	0.0980446
0.678794	0.106364
0.681242	0.100898
0.683689	0.0954035
0.686137	0.107114
0.688584	0.101947
0.691031	0.106799
0.693478	0.110779
0.695925	0.103898
0.698372	0.094305
0.700819	0.105693
0.703266	0.102975
0.705713	0.102932
0.70816		0.103026
0.710607	0.102994
0.713053	0.108287
0.7155		0.105462
0.717947	0.105605
0.720393	0.106495
0.722839	0.0968307
0.725286	0.107402
0.727732	0.105915
0.730178	0.105522
0.732624	0.110987
0.73507	0.102811
0.737516	0.103552
0.739962	0.104073
0.742408	0.10086
0.744854	0.109338
0.7473	0.107903
0.749745	0.0948242
0.752191	0.10955
0.754636	0.110875
0.757082	0.109352
0.759527	0.114905
0.761973	0.109239
0.764418	0.108608
0.766863	0.107604
0.769308	0.106625
0.771753	0.102893
0.774198	0.104048
0.776643	0.101606
0.779088	0.112113
0.781533	0.11853
0.783977	0.115696
0.786422	0.113696
0.788866	0.113358
0.791311	0.107583
0.793755	0.113999
0.7962	0.112816
0.798644	0.118712
0.801088	0.107757
0.803532	0.112454
0.805976	0.118875
0.80842	0.115133
0.810864	0.117135
0.813308	0.112857
0.815752	0.116393
0.818195	0.119397
0.820639	0.119767
0.823082	0.11653
0.825526	0.112711
0.827969	0.118958
0.830413	0.121747
0.832856	0.11638
0.835299	0.11544
0.837742	0.118848
0.840185	0.122984
0.842628	0.119524
0.845071	0.120018
0.847514	0.114859
0.849956	0.117896
0.852399	0.121362
0.854841	0.125618
0.857284	0.126366
0.859726	0.123127
0.862168	0.124253
0.864611	0.125973
0.867053	0.127364
0.869495	0.125841
0.871937	0.123401
0.874379	0.122342
0.876821	0.126914
0.879262	0.130722
0.881704	0.135846
0.884146	0.127045
0.886587	0.12216
0.889029	0.126959
0.89147	0.130429
0.893911	0.121822
0.896352	0.12667
0.898794	0.133322
0.901234	0.13125
0.903675	0.125791
0.906116	0.134038
0.908557	0.136682
0.910998	0.136891
0.913438	0.135851
0.915879	0.140612
0.918319	0.145633
0.92076	0.14137
0.9232	0.14268
0.92564	0.146946
0.92808	0.14918
0.93052	0.146132
0.93296	0.146061
0.9354	0.14581
0.93784	0.139973
0.94028	0.144722
0.942719	0.141687
0.945159	0.148255
0.947598	0.14592
0.950037	0.150719
0.952477	0.149209
0.954916	0.152456
0.957355	0.150038
0.959794	0.15392
0.962233	0.155983
0.964672	0.152761
0.96711	0.156845
0.969549	0.158227
0.971988	0.163153
0.974426	0.156845
0.976864	0.162037
0.979303	0.158822
0.981741	0.162767
0.984179	0.163581
0.986617	0.165573
0.989055	0.161519
0.991493	0.164024
0.993931	0.163542
0.996368	0.161656
0.998806	0.163804
1.00124	0.163359
1.00368	0.172334
1.00612	0.168921
1.00855	0.183151
1.01099	0.176813
1.01343	0.17458
1.01587	0.174324
1.0183	0.17601
1.02074	0.180747
1.02318	0.185713
1.02561	0.183576
1.02805	0.185408
1.03049	0.180765
1.03292	0.182117
1.03536	0.182649
1.0378	0.185767
1.04023	0.184344
1.04267	0.187225
1.0451	0.187844
1.04754	0.184629
1.04997	0.187635
1.05241	0.195138
1.05485	0.189076
1.05728	0.193601
1.05972	0.193938
1.06215	0.195591
1.06458	0.201354
1.06702	0.207151
1.06946	0.205081
1.07189	0.206506
1.07433	0.201063
1.07676	0.203901
1.07919	0.203461
1.08163	0.207841
1.08406	0.20379
1.0865	0.206237
1.08893	0.210416
1.09136	0.214055
1.0938	0.21109
1.09623	0.216159
1.09867	0.216531
1.1011	0.220958
1.10353	0.220743
1.10597	0.223141
1.1084	0.219687
1.11083	0.225839
1.11327	0.226271
1.1157	0.226976
1.11813	0.228559
1.12056	0.228081
1.123	0.229141
1.12543	0.231739
1.12786	0.229572
1.13029	0.227765
1.13273	0.230871
1.13516	0.236336
1.13759	0.236913
1.14002	0.242243
1.14246	0.238502
1.14489	0.242847
1.14732	0.241969
1.14975	0.246221
1.15218	0.243418
1.15461	0.24277
1.15704	0.242494
1.15948	0.248549
1.16191	0.245839
1.16434	0.247764
1.16677	0.252669
1.1692	0.25209
1.17163	0.252057
1.17406	0.249702
1.17649	0.255851
1.17892	0.252826
1.18135	0.257262
1.18378	0.25556
1.18621	0.255786
1.18864	0.258241
1.19107	0.25498
1.1935	0.255964
1.19593	0.261861
1.19836	0.257215
1.20079	0.26261
1.20322	0.260158
1.20565	0.257416
1.20808	0.262257
1.2105	0.266905
1.21293	0.266377
1.21536	0.263378
1.21779	0.261899
1.22022	0.263073
1.22265	0.26945
1.22507	0.274483
1.2275	0.271425
1.22993	0.272497
1.23236	0.270699
1.23479	0.277951
1.23721	0.274557
1.23964	0.275451
1.24207	0.269522
1.2445	0.277446
1.24692	0.275881
1.24935	0.275791
1.25178	0.280344
1.2542	0.272031
1.25663	0.278443
1.25906	0.280118
1.26148	0.277551
1.26391	0.279777
1.26634	0.28041
1.26876	0.277006
1.27119	0.281127
1.27361	0.283753
1.27604	0.277549
1.27847	0.276664
1.28089	0.28084
1.28332	0.283534
1.28574	0.281379
1.28817	0.278977
1.29059	0.278645
1.29302	0.281718
1.29544	0.278284
1.29787	0.278494
1.30029	0.280378
1.30272	0.283906
1.30514	0.285161
1.30756	0.281812
1.30999	0.278482
1.31241	0.28165
1.31484	0.276793
1.31726	0.278096
1.31969	0.282955
1.32211	0.280681
1.32453	0.279919
1.32696	0.278051
1.32938	0.276686
1.3318	0.282941
1.33422	0.287136
1.33665	0.280096
1.33907	0.279446
1.34149	0.275347
1.34392	0.278908
1.34634	0.276993
1.34876	0.272228
1.35118	0.274887
1.3536	0.278316
1.35603	0.267209
1.35845	0.268582
1.36087	0.268695
1.36329	0.267845
1.36571	0.274962
1.36813	0.268119
1.37055	0.270918
1.37297	0.268608
1.3754	0.272034
1.37782	0.264424
1.38024	0.261945
1.38266	0.266691
1.38508	0.270507
1.3875	0.263349
1.38992	0.26172
1.39234	0.265706
1.39476	0.263423
1.39718	0.263853
1.3996	0.262825
1.40202	0.267298
1.40444	0.260039
1.40686	0.257384
1.40928	0.259216
1.41169	0.251191
1.41411	0.255865
1.41653	0.252962
1.41895	0.253529
1.42137	0.251952
1.42379	0.250133
1.42621	0.250978
1.42862	0.248165
1.43104	0.252184
1.43346	0.243385
1.43588	0.246411
1.43829	0.24371
1.44071	0.242374
1.44313	0.23966
1.44555	0.241626
1.44796	0.239719
1.45038	0.238192
1.4528	0.242253
1.45521	0.237935
1.45763	0.235765
1.46005	0.231653
1.46246	0.231789
1.46488	0.231462
1.4673	0.230505
1.46971	0.230585
1.47213	0.228394
1.47454	0.227465
1.47696	0.222631
1.47937	0.222955
1.48179	0.219156
1.4842	0.222327
1.48662	0.225304
1.48903	0.223661
1.49145	0.214078
1.49386	0.215508
1.49628	0.215877
1.49869	0.212544
1.5011	0.215518
1.50352	0.210086
1.50593	0.205364
1.50835	0.204312
1.51076	0.204475
1.51317	0.206338
1.51559	0.204836
1.518	0.202374
1.52041	0.202306
1.52282	0.1991
1.52524	0.194985
1.52765	0.20031
1.53006	0.195989
1.53248	0.197006
1.53489	0.193779
1.5373	0.192922
1.53971	0.190219
1.54212	0.188285
1.54454	0.186045
1.54695	0.184518
1.54936	0.185106
1.55177	0.191073
1.55418	0.187679
1.55659	0.186819
1.559	0.187492
1.56141	0.178788
1.56382	0.185661
1.56623	0.177532
1.56864	0.177825
1.57105	0.180039
1.57346	0.177739
1.57587	0.17597
1.57828	0.169743
1.58069	0.169736
1.5831	0.166778
1.58551	0.169014
1.58792	0.165052
1.59033	0.165367
1.59274	0.165063
1.59515	0.15796
1.59755	0.169922
1.59996	0.163889
1.60237	0.166168
1.60478	0.163375
1.60719	0.154938
1.60959	0.155462
1.612	0.156831
1.61441	0.158011
1.61682	0.158643
1.61922	0.153837
1.62163	0.150534
1.62404	0.15067
1.62644	0.149538
1.62885	0.146927
1.63126	0.144061
1.63366	0.144424
1.63607	0.147756
1.63848	0.1404
1.64088	0.138444
1.64329	0.142888
1.64569	0.143986
1.6481	0.14345
1.6505	0.140079
1.65291	0.140687
1.65531	0.139513
1.65772	0.13531
1.66012	0.134361
1.66253	0.132551
1.66493	0.133513
1.66734	0.129897
1.66974	0.125679
1.67214	0.129239
1.67455	0.13094
1.67695	0.125523
1.67935	0.124587
1.68176	0.125012
1.68416	0.127058
1.68656	0.128265
1.68897	0.126957
1.69137	0.12154
1.69377	0.124273
1.69617	0.126246
1.69858	0.123142
1.70098	0.122138
1.70338	0.117845
1.70578	0.117714
1.70818	0.116441
1.71059	0.111543
1.71299	0.118308
1.71539	0.115127
1.71779	0.11383
1.72019	0.11552
1.72259	0.109942
1.72499	0.110633
1.72739	0.103822
1.72979	0.109372
1.73219	0.106412
1.73459	0.107775
1.73699	0.10651
1.73939	0.107727
1.74179	0.104617
1.74419	0.100598
1.74659	0.102649
1.74899	0.101136
1.75139	0.107133
1.75378	0.0990861
1.75618	0.0982735
1.75858	0.0944629
1.76098	0.0992903
1.76338	0.09664
1.76577	0.0965981
1.76817	0.0960163
1.77057	0.0972556
1.77297	0.0896881
1.77536	0.0945543
1.77776	0.0883227
1.78016	0.0856709
1.78255	0.0865774
1.78495	0.0917014
1.78735	0.0882155
1.78974	0.0899709
1.79214	0.0969918
1.79454	0.0904223
1.79693	0.0888904
1.79933	0.0910751
1.80172	0.0875794
1.80412	0.0824932
1.80651	0.0909638
1.80891	0.0832661
1.8113	0.0897622
1.8137	0.0923425
1.81609	0.0780901
1.81849	0.081529
1.82088	0.0796
1.82327	0.0919567
1.82567	0.0838373
1.82806	0.0839321
1.83045	0.0795577
1.83285	0.0775511
1.83524	0.0707073
1.83763	0.0777869
1.84003	0.0767023
1.84242	0.0748268
1.84481	0.0850461
1.8472	0.0792141
1.8496	0.084816
1.85199	0.075181
1.85438	0.0661507
1.85677	0.0705844
1.85916	0.0619266
1.86155	0.0599985
1.86394	0.049868
1.86514	0.0536663