File: data-parchment-33iod.txt
MATERIAL INFORMATION
	Material = 33% iodine on King Arthur parchment
	Thickness = 0.006 mm
SAXS INSTRUMENT
	Source = Cu K-alpha
	Wavelength = 1.5418 A
	Sample-to-detector distance = 106 mm
	Exposure time = 500 s

===============================================================
q (A^-1)	I(q)
===============================================================
0.00203935	3.84759
0.00451643	3.04543
0.00699351	-0.919129
0.00947059	-3.24016
0.0119477	-7.01822
0.0144248	-3.62816
0.0169018	0.487279
0.0193789	-0.736835
0.021856	-0.469619
0.0243331	-1.34258
0.0268101	-1.01516
0.0292872	-1.28168
0.0317643	-9.72225
0.0342413	-9.69393
0.0367184	-1.17868
0.0391954	-0.419428
0.0416725	0.570284
0.0441495	0.544632
0.0466266	0.59146
0.0491036	0.53513
0.0515806	0.697861
0.0540577	0.303931
0.0565347	0.876873
0.0590117	1.85487
0.0614887	2.15174
0.0639657	2.13863
0.0664427	1.82834
0.0689197	1.82497
0.0713967	1.96534
0.0738737	2.38986
0.0763507	1.90271
0.0788277	1.73386
0.0813046	1.41197
0.0837816	1.29824
0.0862585	1.33656
0.0887355	1.11016
0.0912124	1.55838
0.0936893	1.30615
0.0961662	0.857214
0.0986431	0.682987
0.10112	0.968184
0.103597	0.720113
0.106074	0.748203
0.108551	0.155959
0.111027	0.601953
0.113504	0.403011
0.115981	0.640526
0.118458	0.687761
0.120935	0.627613
0.123412	0.429623
0.125888	0.370867
0.128365	0.831344
0.130842	0.719282
0.133319	0.634437
0.135796	0.588575
0.138272	0.381388
0.140749	0.362733
0.143226	0.542906
0.145702	0.826242
0.148179	0.558764
0.150656	0.713299
0.153132	0.615519
0.155609	0.694674
0.158086	0.68992
0.160562	0.581077
0.163039	0.597993
0.165515	0.600442
0.167992	0.569452
0.170469	0.217148
0.172945	0.656854
0.175422	0.304251
0.177898	-0.325116
0.180374	0.281173
0.182851	0.435352
0.185327	0.39168
0.187804	0.335509
0.19028	0.178428
0.192757	0.14489
0.195233	0.124572
0.197709	0.188143
0.200186	0.205941
0.202662	0.219233
0.205138	0.260654
0.207615	0.264792
0.210091	0.0417307
0.212567	0.337275
0.215043	0.282758
0.21752	0.156684
0.219996	0.195742
0.222472	0.189487
0.224948	0.353545
0.227424	0.141878
0.2299	0.149924
0.232376	0.558133
0.234852	0.357504
0.237329	0.34392
0.239805	0.151446
0.242281	0.034905
0.244757	0.576492
0.247233	0.102277
0.249709	0.300613
0.252184	0.190484
0.25466	0.0776101
0.257136	-0.00852791
0.259612	0.0898295
0.262088	-0.143193
0.264564	0.174043
0.267039	0.0758863
0.269515	0.409457
0.271991	0.190312
0.274467	-0.153277
0.276942	0.155548
0.279418	-0.0340778
0.281893	-0.0572756
0.284369	0.0960996
0.286845	0.129644
0.28932	0.129098
0.291796	0.136023
0.294271	0.0578618
0.296746	-0.0323503
0.299222	-0.0167267
0.301697	0.0149156
0.304173	0.0447842
0.306648	0.267827
0.309123	-0.00115755
0.311599	-0.0984781
0.314074	-0.0782856
0.316549	0.0178965
0.319024	0.119621
0.321499	0.198154
0.323975	0.580652
0.32645	0.136011
0.328925	0.430058
0.3314	-0.0229433
0.333875	0.36163
0.33635	0.138255
0.338825	-0.0455983
0.3413	0.149674
0.343775	-0.00535485
0.346249	0.0378062
0.348724	0.139295
0.351199	0.223829
0.353674	0.216272
0.356149	0.373271
0.358623	0.306085
0.361098	0.144638
0.363573	-0.043889
0.366047	-0.554209
0.368522	0.256416
0.370996	0.055924
0.373471	0.106152
0.375945	0.00688623
0.37842	0.0350491
0.380894	0.0397756
0.383369	-0.303065
0.385843	0.0578056
0.388317	0.155248
0.390791	0.0248717
0.393265	0.105177
0.39574	0.11449
0.398214	-0.105312
0.400688	-0.177427
0.403162	-0.172215
0.405636	0.0635354
0.40811	-0.0561745
0.410584	0.120208
0.413058	-0.0207509
0.415532	-0.0519038
0.418006	-0.025725
0.42048	0.162375
0.422953	0.183655
0.425427	-0.00641438
0.427901	0.0434998
0.430374	0.171397
0.432848	0.0210388
0.435321	0.221229
0.437795	-0.0551113
0.440269	-0.141496
0.442742	-0.180045
0.445215	-0.196457
0.447689	-0.000126169
0.450162	0.0259648
0.452635	-0.400587
0.455108	-0.286565
0.457582	-0.0216301
0.460055	-0.0304914
0.462528	0.044756
0.465001	-0.0387963
0.467474	0.122519
0.469947	-0.0974204
0.47242	-0.0152241
0.474893	0.0397031
0.477366	-0.0372591
0.479839	0.0885379
0.482311	-0.116336
0.484784	0.04134
0.487257	0.0420315
0.489729	-0.0805253
0.492202	0.0119962
0.494675	0.10691
0.497147	-0.0501156
0.499619	-0.154887
0.502092	-0.216945
0.504564	-0.188783
0.507037	-0.0349905
0.509509	0.478774
0.511981	0.0446953
0.514453	0.375974
0.516925	-0.0743522
0.519397	0.135224
0.521869	-0.0222582
0.524341	-0.184718
0.526813	-0.0431394
0.529285	0.0161463
0.531757	-0.0656965
0.534229	-0.0282256
0.5367	-0.107994
0.539172	-0.0868497
0.541644	-0.0412062
0.544115	-0.0684781
0.546587	0.577085
0.549058	-0.391158
0.55153	0.0911572
0.554001	-0.0416712
0.556473	0.0425935
0.558944	-0.0957383
0.561415	0.0137391
0.563886	0.0208031
0.566357	-0.193745
0.568828	-0.180903
0.571299	0.00502278
0.57377	0.0167019
0.576241	-0.318345
0.578712	-0.0837899
0.581183	-0.19141
0.583654	-0.0830168
0.586124	-0.0379715
0.588595	-0.0864482
0.591066	-0.158548
0.593536	-0.542946
0.596007	-0.058986
0.598477	0.0870741
0.600947	0.102087
0.603418	0.0437382
0.605888	0.118819
0.608358	-0.0322398
0.610828	-0.00883975
0.613298	-0.153275
0.615768	-0.14972
0.618238	-0.0889062
0.620708	-0.181193
0.623178	0.0405334
0.625648	-0.0278213
0.628118	-0.0239521
0.630587	0.118927
0.633057	-0.472362
0.635527	-0.0249944
0.637996	0.203603
0.640466	-0.132366
0.642935	-0.0417654
0.645404	-0.133584
0.647873	-0.0670406
0.650343	0.022295
0.652812	-0.135045
0.655281	-0.0298751
0.65775	-0.0958651
0.660219	-0.0468935
0.662688	0.0303315
0.665157	-0.136226
0.667625	-0.199498
0.670094	-0.043686
0.672563	0.13571
0.675032	0.137613
0.6775	-0.0784841
0.679969	-0.0649479
0.682437	-0.120682
0.684905	-0.158539
0.687374	-0.105267
0.689842	0.0515174
0.69231	0.145997
0.694778	0.102613
0.697246	0.114723
0.699714	0.212597
0.702182	0.223696
0.70465	0.0383074
0.707118	0.0556548
0.709585	-0.10951
0.712053	-0.0904171
0.714521	-0.463688
0.716988	-0.000374489
0.719456	0.0182808
0.721923	-0.0514842
0.72439	0.0325512
0.726858	0.129319
0.729325	0.0628304
0.731792	-0.0642264
0.734259	-0.0437376
0.736726	-0.0103986
0.739193	0.0564823
0.74166	0.170653
0.744126	0.165114
0.746593	0.0439186
0.74906	-0.0183564
0.751526	0.130059
0.753993	0.271314
0.756459	0.117601
0.758925	0.0867334
0.761392	0.0524083
0.763858	0.0310349
0.766324	0.0715077
0.76879	0.192769
0.771256	0.0372198
0.773722	0.228361
0.776188	0.082392
0.778654	-0.0094506
0.781119	0.0122763
0.783585	0.0839835
0.786051	0.166983
0.788516	-0.016173
0.790982	0.108278
0.793447	0.00369953
0.795912	0.00995421
0.798377	-0.0271334
0.800843	0.0131282
0.803308	0.0428527
0.805773	0.544876
0.808238	0.0151938
0.810702	0.20446
0.813167	0.142544
0.815632	0.19035
0.818096	0.156808
0.820561	-0.00505303
0.823025	-0.0119059
0.82549	0.0207089
0.827954	-0.00131708
0.830418	0.156455
0.832882	0.0937811
0.835347	0.148065
0.837811	0.103216
0.840274	0.0378152
0.842738	0.0143844
0.845202	0.0226476
0.847666	0.133263
0.850129	0.240261
0.852593	0.107973
0.855056	0.130373
0.85752	0.103328
0.859983	0.00190226
0.862446	0.177261
0.864909	0.204898
0.867372	0.201289
0.869835	0.076237
0.872298	0.0707011
0.874761	0.135462
0.877224	-0.0476458
0.879687	0.166126
0.882149	0.148044
0.884612	0.222023
0.887074	0.205155
0.889536	0.0815192
0.891999	0.333365
0.894461	0.110682
0.896923	0.042463
0.899385	0.170583
0.901847	-0.338554
0.904308	0.131611
0.90677	0.0607258
0.909232	-0.0251186
0.911693	0.0198633
0.914155	0.0741261
0.916616	0.162263
0.919078	0.0618615
0.921539	0.120534
0.924	0.298078
0.926461	0.263223
0.928922	0.262393
0.931383	0.202283
0.933844	0.167569
0.936305	0.168587
0.938765	0.183685
0.941226	0.138368
0.943686	0.161031
0.946147	0.225604
0.948607	0.16274
0.951067	0.183477
0.953527	0.264576
0.955987	0.170466
0.958447	0.203147
0.960907	0.199293
0.963367	0.242312
0.965827	-0.0423446
0.968286	0.198339
0.970746	0.240911
0.973205	0.169285
0.975664	0.127214
0.978124	0.208118
0.980583	0.342406
0.983042	0.35747
0.985501	0.262807
0.98796	0.401341
0.990418	0.452587
0.992877	0.382196
0.995336	0.366703
0.997794	0.415666
1.00025	0.448232
1.00271	0.521111
1.00517	0.520929
1.00763	0.395645
1.01008	0.398336
1.01254	0.549509
1.015	0.477147
1.01746	0.340168
1.01992	0.405645
1.02237	0.354656
1.02483	0.434651
1.02729	0.391628
1.02975	0.389198
1.0322	0.459681
1.03466	0.503978
1.03712	0.405844
1.03957	0.397464
1.04203	0.365879
1.04449	0.489406
1.04694	0.443886
1.0494	0.400115
1.05186	0.470542
1.05431	0.415298
1.05677	0.372825
1.05923	0.43269
1.06168	0.612612
1.06414	0.415231
1.06659	0.430541
1.06905	0.455493
1.0715	0.478984
1.07396	0.416286
1.07642	0.298494
1.07887	0.620701
1.08133	0.551455
1.08378	0.557027
1.08624	0.371712
1.08869	0.421502
1.09115	0.433081
1.0936	0.525826
1.09606	0.536418
1.09851	0.446729
1.10097	0.418246
1.10342	0.465771
1.10587	0.877053
1.10833	0.425153
1.11078	0.416253
1.11324	0.450136
1.11569	0.474291
1.11814	0.43258
1.1206	0.523616
1.12305	0.46328
1.1255	0.557915
1.12796	0.453495
1.13041	0.411786
1.13286	0.47096
1.13532	0.515951
1.13777	0.443806
1.14022	0.38436
1.14267	0.528095
1.14513	0.358224
1.14758	0.321267
1.15003	0.314664
1.15248	0.413632
1.15494	0.364032
1.15739	0.227344
1.15984	0.325704
1.16229	0.39684
1.16474	0.282941
1.1672	0.409603
1.16965	0.31404
1.1721	0.367176
1.17455	0.374295
1.177	0.381057
1.17945	0.421357
1.1819	0.404085
1.18435	0.378067
1.1868	0.440315
1.18926	0.33326
1.19171	0.261369
1.19416	0.349047
1.19661	0.421847
1.19906	0.308148
1.20151	0.271221
1.20396	0.429439
1.20641	0.398429
1.20886	0.321086
1.21131	0.272093
1.21375	0.261239
1.2162	0.304267
1.21865	0.320636
1.2211	0.346317
1.22355	0.346027
1.226	0.166132
1.22845	0.146468
1.2309	0.16583
1.23335	0.231693
1.2358	0.0791608
1.23824	0.221479
1.24069	0.3441
1.24314	0.26174
1.24559	0.226903
1.24804	0.260387
1.25048	0.169409
1.25293	0.163894
1.25538	0.171003
1.25783	0.206287
1.26027	0.101314
1.26272	0.155368
1.26517	0.223729
1.26762	0.158923
1.27006	0.164513
1.27251	0.0944245
1.27496	0.177031
1.2774	0.0197734
1.27985	0.134729
1.2823	0.148769
1.28474	0.311113
1.28719	0.161915
1.28963	0.149379
1.29208	0.105007
1.29452	0.0173653
1.29697	0.186457
1.29942	0.215523
1.30186	0.160433
1.30431	0.139019
1.30675	0.196276
1.3092	0.127124
1.31164	0.0957623
1.31409	0.114747
1.31653	0.114436
1.31898	0.0147623
1.32142	0.042007
1.32386	0.188634
1.32631	0.090423
1.32875	0.294602
1.3312	0.17046
1.33364	0.139479
1.33608	0.153767
1.33853	0.157277
1.34097	0.20176
1.34341	0.217483
1.34586	0.254148
1.3483	0.175875
1.35074	0.156386
1.35319	0.145359
1.35563	0.174413
1.35807	0.312675
1.36051	0.197131
1.36295	0.290365
1.3654	0.344441
1.36784	0.183902
1.37028	0.212056
1.37272	0.174987
1.37516	0.271574
1.37761	0.320292
1.38005	-0.116779
1.38249	0.366675
1.38493	0.345755
1.38737	0.173731
1.38981	0.293866
1.39225	0.336718
1.39469	0.210265
1.39713	0.303421
1.39957	0.343184
1.40201	0.340502
1.40445	0.251412
1.40689	0.250149
1.40933	0.219259
1.41177	0.269602
1.41421	0.265585
1.41665	0.39267
1.41909	0.515861
1.42153	0.487771
1.42397	0.405098
1.42641	0.390863
1.42885	0.451517
1.43129	0.495481
1.43372	0.459928
1.43616	0.368261
1.4386	0.47797
1.44104	0.34262
1.44348	0.362018
1.44592	0.418975
1.44835	0.513798
1.45079	0.544815
1.45323	0.488396
1.45567	0.382791
1.4581	0.385751
1.46054	0.466754
1.46298	0.466699
1.46541	0.503363
1.46785	0.470172
1.47029	0.492733
1.47272	0.493225
1.47516	0.411398
1.4776	0.516607
1.48003	0.490151
1.48247	0.392063
1.4849	0.425616
1.48734	0.637069
1.48977	0.520044
1.49221	0.642253
1.49464	0.485334
1.49708	0.642722
1.49951	0.686376
1.50195	0.619597
1.50438	0.629705
1.50682	0.652486
1.50925	0.61484
1.51169	0.566898
1.51412	0.591295
1.51655	0.565307
1.51899	0.65248
1.52142	0.750293
1.52386	0.66714
1.52629	0.576125
1.52872	0.629542
1.53116	0.758904
1.53359	0.832121
1.53602	0.762447
1.53845	0.806263
1.54089	0.795109
1.54332	0.92509
1.54575	0.890156
1.54818	1.05885
1.55061	1.13063
1.55305	0.907489
1.55548	0.960598
1.55791	0.968462
1.56034	0.986411
1.56277	0.969598
1.5652	1.01126
1.56763	1.14092
1.57006	1.19527
1.5725	1.06799
1.57492	1.13832
1.57736	1.14661
1.57979	1.17001
1.58222	1.14255
1.58465	1.2508
1.58708	1.14365
1.5895	1.1538
1.59193	1.09981
1.59436	1.185
1.59679	1.01877
1.59922	1.06799
1.60165	1.09035
1.60408	1.09624
1.60651	1.02497
1.60894	1.09555
1.61136	0.953904
1.61379	1.04602
1.61622	1.00874
1.61865	0.968069
1.62108	0.91679
1.6235	0.997298
1.62593	0.45878
1.62836	0.884145
1.63079	0.87638
1.63321	0.685169
1.63564	0.700333
1.63807	0.648897
1.64049	0.733243
1.64292	0.582418
1.64535	0.557275
1.64777	0.537556
1.6502	0.583239
1.65262	0.577957
1.65505	0.693277
1.65747	0.95196
1.6599	0.393097
1.66232	0.416935
1.66475	0.485697
1.66717	0.446161
1.6696	0.381593
1.67202	0.414738
1.67445	0.429374
1.67687	0.320701
1.6793	0.346067
1.68172	0.31556
1.68414	0.297605
1.68657	0.33996
1.68899	0.26256
1.69141	0.281022
1.69384	0.304832
1.69626	0.290825
1.69868	0.406863
1.7011	0.229791
1.70353	0.218236
1.70595	0.287352
1.70837	0.297889
1.71079	0.274027
1.71321	0.271746
1.71564	0.195584
1.71806	0.269028
1.72048	0.237093
1.7229	0.224484
1.72532	0.114648
1.72774	0.138425
1.73016	0.133904
1.73258	0.158594
1.735	0.16056
1.73742	0.311548
1.73984	0.231777
1.74226	0.128561
1.74468	0.164142
1.7471	0.200132
1.74952	0.109716
1.75194	0.122433
1.75436	0.163945
1.75678	0.0534171
1.7592	0.0795986
1.76162	0.185361
1.76404	0.0664276
1.76645	-0.477721
1.76887	-0.0130651
1.77129	0.11855
1.77371	0.181429
1.77613	0.0787503
1.77854	0.131286
1.78096	0.11083
1.78338	0.0682611
1.78579	0.14764
1.78821	0.131805
1.79063	-0.00957388
1.79305	0.0498171
1.79546	-0.00780108
1.79788	0.133859
1.80029	0.210685
1.80271	0.265259
1.80512	0.644665
1.80754	-0.0455014
1.80996	0.0471868
1.81237	0.154435
1.81479	-0.0485548
1.8172	-0.00231405
1.81962	0.00676207
1.82203	0.204313
1.82444	0.0731536
1.82686	0.116369
1.82927	0.091749
1.83169	0.138712
1.8341	0.0487566
1.83651	0.153671
1.83893	0.219271
1.84134	0.192479
1.84375	-0.0411944
1.84616	0.235519
1.84858	0.213919
1.85099	0.092573
1.8534	0.154516
1.85581	0.0418494
1.85823	0.160697
1.86064	0.160191
1.86305	0.205039
1.86546	0.187266
1.86787	-0.107278
1.87028	0.243616
1.87269	0.147005
1.87511	-0.0339473
1.87752	-0.161104