File: data-PMMA.txt
MATERIAL INFORMATION
	Material = PMMA
	Thickness = 1 mm
SAXS INSTRUMENT
	Source = Cu K-alpha
	Wavelength = 1.5418 A
	Sample-to-detector distance = 106 mm
	Exposure time = 60 s

===============================================================
q (A^-1)	I(q)
===============================================================
-0.015857	0.092694
-0.0108425	0.0273049
-0.0058281	0.071435
-0.00081367	-3.1998e-06
0.00420075	-0.026706
0.00921516	0.160834
0.0142296	0.252017
0.0192439	-0.0500529
0.0242583	-0.417019
0.0292727	-0.530487
0.034287	-0.442221
0.0393013	-0.191382
0.0443156	0.0286272
0.0493298	0.0229394
0.0543441	-0.0495508
0.0593583	-0.0330351
0.0643725	0.00447242
0.0693866	0.00820231
0.0744007	-0.00383233
0.0794148	0.00151923
0.0844288	0.0120199
0.0894428	0.0168306
0.0944567	0.0149435
0.0994706	0.0293366
0.104485	0.0188204
0.109498	0.0224725
0.114512	0.0207098
0.119526	0.022394
0.124539	0.0236099
0.129553	0.0207263
0.134566	0.0150987
0.13958	0.0175058
0.144593	0.0174516
0.149607	0.0110638
0.15462	0.0132646
0.159633	0.0144588
0.164647	0.0174115
0.16966	0.0199847
0.174673	0.0151491
0.179686	0.0174319
0.184698	0.0131947
0.189711	0.0162521
0.194724	0.0158287
0.199736	0.0187705
0.204749	0.0178971
0.209761	0.0169531
0.214774	0.0173554
0.219786	0.0214272
0.224798	0.0206177
0.22981	0.0180687
0.234822	0.0202597
0.239834	0.0285944
0.244846	0.030112
0.249858	0.0239525
0.254869	0.0216569
0.259881	0.021853
0.264892	0.0217731
0.269903	0.0246346
0.274914	0.0329555
0.279925	0.0263741
0.284936	0.0304177
0.289947	0.0275562
0.294958	0.0353487
0.299968	0.030338
0.304979	0.028291
0.309989	0.0292599
0.314999	0.0228083
0.32001	0.0230223
0.325019	0.0330386
0.330029	0.0343252
0.335039	0.0339506
0.340048	0.0275119
0.345058	0.0287258
0.350067	0.0345719
0.355076	0.0416045
0.360085	0.048401
0.365094	0.040579
0.370103	0.0399636
0.375111	0.0459655
0.38012	0.0445202
0.385128	0.0445
0.390136	0.0417244
0.395144	0.0348805
0.400152	0.038701
0.405159	0.038086
0.410167	0.0419716
0.415174	0.048993
0.420181	0.046234
0.425188	0.0452858
0.430195	0.049838
0.435201	0.0461439
0.440208	0.0491211
0.445214	0.0498431
0.45022	0.0546076
0.455226	0.0568979
0.460232	0.0578603
0.465237	0.0544973
0.470243	0.059059
0.475248	0.0648654
0.480253	0.0578072
0.485258	0.0655332
0.490262	0.0625265
0.495266	0.066746
0.500271	0.0712218
0.505275	0.0683547
0.510278	0.0657741
0.515282	0.0692536
0.520285	0.0740892
0.525289	0.0741341
0.530292	0.0773312
0.535294	0.079328
0.540297	0.0859858
0.545299	0.0887374
0.550302	0.0888658
0.555303	0.0880042
0.560305	0.0872631
0.565307	0.0938823
0.570308	0.0885682
0.575309	0.090573
0.58031	0.0889958
0.58531	0.0944376
0.590311	0.103296
0.595311	0.10281
0.60031	0.101278
0.60531	0.10417
0.61031	0.10377
0.615309	0.114515
0.620308	0.113613
0.625306	0.108456
0.630305	0.114159
0.635303	0.122739
0.640301	0.127257
0.645299	0.124286
0.650296	0.123534
0.655293	0.11857
0.66029	0.127254
0.665287	0.126176
0.670283	0.129099
0.675279	0.134182
0.680275	0.141254
0.685271	0.148951
0.690266	0.153041
0.695261	0.146522
0.700256	0.149405
0.705251	0.153723
0.710245	0.154558
0.715239	0.161679
0.720233	0.167351
0.725226	0.164605
0.730219	0.166283
0.735212	0.172935
0.740204	0.173564
0.745197	0.180522
0.750189	0.181111
0.75518	0.185482
0.760172	0.188972
0.765163	0.197913
0.770154	0.201723
0.775144	0.201277
0.780134	0.206792
0.785124	0.208337
0.790114	0.215376
0.795103	0.218226
0.800092	0.228519
0.805081	0.23715
0.810069	0.236883
0.815057	0.246979
0.820045	0.254299
0.825032	0.256176
0.830019	0.270936
0.835006	0.268443
0.839992	0.266757
0.844979	0.275505
0.849964	0.28639
0.85495	0.295916
0.859935	0.292926
0.86492	0.286538
0.869904	0.288411
0.874888	0.303095
0.879872	0.309776
0.884855	0.316577
0.889838	0.327538
0.894821	0.342522
0.899803	0.347713
0.904785	0.347273
0.909767	0.345472
0.914748	0.338995
0.919729	0.340064
0.92471	0.346733
0.92969	0.351693
0.93467	0.349837
0.93965	0.349563
0.944629	0.351847
0.949608	0.354076
0.954586	0.350625
0.959564	0.349349
0.964542	0.351002
0.969519	0.358229
0.974496	0.352557
0.979473	0.355502
0.984449	0.356072
0.989425	0.356921
0.9944	0.356031
0.999375	0.359208
1.00435	0.358304
1.00932	0.346496
1.0143	0.34315
1.01927	0.343601
1.02424	0.343896
1.02922	0.337907
1.03419	0.339901
1.03916	0.338065
1.04413	0.335082
1.0491	0.330796
1.05407	0.325254
1.05905	0.326497
1.06401	0.312249
1.06898	0.309176
1.07395	0.312323
1.07892	0.310172
1.08389	0.313114
1.08886	0.310108
1.09383	0.307492
1.09879	0.301548
1.10376	0.30053
1.10872	0.296141
1.11369	0.298113
1.11866	0.296821
1.12362	0.290643
1.12858	0.285067
1.13355	0.287325
1.13851	0.284598
1.14348	0.284323
1.14844	0.274259
1.1534	0.266638
1.15836	0.26955
1.16332	0.267974
1.16828	0.261805
1.17324	0.258977
1.1782	0.252971
1.18316	0.247316
1.18812	0.255889
1.19308	0.249889
1.19804	0.242595
1.203	0.243737
1.20795	0.247829
1.21291	0.240043
1.21787	0.230839
1.22282	0.226329
1.22778	0.22088
1.23273	0.217681
1.23769	0.211565
1.24264	0.203319
1.24759	0.199582
1.25255	0.205549
1.2575	0.209235
1.26245	0.211794
1.2674	0.209472
1.27235	0.207831
1.2773	0.209403
1.28225	0.206733
1.2872	0.204926
1.29215	0.200635
1.2971	0.197735
1.30205	0.184607
1.307	0.183283
1.31194	0.182879
1.31689	0.177823
1.32184	0.177119
1.32678	0.180577
1.33173	0.17651
1.33667	0.169034
1.34162	0.169772
1.34656	0.162302
1.3515	0.163691
1.35644	0.156957
1.36138	0.155011
1.36633	0.154979
1.37127	0.152453
1.37621	0.149123
1.38115	0.145967
1.38609	0.144005
1.39103	0.146156
1.39596	0.147434
1.4009	0.146858
1.40584	0.149773
1.41077	0.14048
1.41571	0.131159
1.42065	0.129739
1.42558	0.128997
1.43052	0.131224
1.43545	0.127092
1.44038	0.116034
1.44532	0.118661
1.45025	0.117499
1.45518	0.112754
1.46011	0.11715
1.46504	0.117521
1.46997	0.103174
1.4749	0.1061
1.47983	0.101028
1.48476	0.103153
1.48968	0.10136
1.49461	0.10075
1.49954	0.101193
1.50446	0.0975843
1.50939	0.0985085
1.51431	0.0937367
1.51924	0.0920728
1.52416	0.0909709
1.52908	0.0921794
1.53401	0.0883693
1.53893	0.0878742
1.54385	0.0872472
1.54877	0.0841795
1.55369	0.0841131
1.55861	0.0799987
1.56353	0.0818206
1.56845	0.0771716
1.57336	0.0772281
1.57828	0.0755989
1.5832	0.0744644
1.58811	0.0729957
1.59303	0.0707722
1.59794	0.0702653
1.60286	0.07054
1.60777	0.0680707
1.61268	0.0678608
1.6176	0.0675655
1.62251	0.0627809
1.62742	0.0651488
1.63233	0.0598576
1.63724	0.0614306
1.64215	0.0666893
1.64705	0.0617339
1.65196	0.0603058
1.65687	0.058519
1.66178	0.0581156
1.66668	0.0577398
1.67159	0.0592192
1.67649	0.0605656
1.6814	0.0607909
1.6863	0.0585208
1.6912	0.0584094
1.6961	0.055152
1.701	0.0508782
1.70591	0.0502082
1.7108	0.0502457
1.71571	0.0460672
1.7206	0.0474775
1.7255	0.0458424
1.7304	0.0423495
1.7353	0.0458675
1.74019	0.0460882
1.74509	0.0478848
1.74998	0.0499944
1.75488	0.0467023
1.75977	0.0516277
1.76466	0.0490047
1.76955	0.0457863
1.77445	0.0503776
1.77934	0.0487491
1.78423	0.0527122
1.78912	0.0510243
1.794	0.0483083
1.79889	0.046549
1.80378	0.0447995
1.80867	0.0404349
1.81355	0.0382966
1.81844	0.0400027
1.82332	0.0308941
1.8282	0.0241983
1.83309	0.0300665